subj,cond,phase,trial,type,stimulus,f1l,f2l,f3l,f1r,f2r,f3r,raw,resp,contemplation_time,contemplation_tp,resp_time,resp_tp,col_order,shape_order,tp_first
s001,tp_15,no_tp,1,familiarization,231-231,2,3,1,2,3,1,497,1,2551,,2987,,102,021,TRUE
s001,tp_15,no_tp,2,familiarization,324-324,3,2,4,3,2,4,485,0.986856516976999,3024,,2084,,102,021,TRUE
s001,tp_15,no_tp,3,familiarization,522-532,5,2,2,5,3,2,292,0.775465498357065,2846,,1331,,102,021,TRUE
s001,tp_15,no_tp,4,familiarization,312-422,3,1,2,4,2,2,308,0.792990142387733,1612,,1041,,102,021,TRUE
s001,tp_15,no_tp,5,familiarization,324-331,3,2,4,3,3,1,60,0.521358159912377,1990,,729,,102,021,TRUE
s001,tp_15,no_tp,6,familiarization,235-335,2,3,5,3,3,5,490,0.992332968236583,1919,,1123,,102,021,TRUE
s001,tp_15,no_tp,7,familiarization,521-131,5,2,1,1,3,1,-71,0.377875136911281,1601,,1094,,102,021,TRUE
s001,tp_15,no_tp,8,familiarization,314-141,3,1,4,1,4,1,-227,0.207009857612267,2260,,910,,102,021,TRUE
s001,tp_15,no_tp,9,familiarization,232-345,2,3,2,3,4,5,-110,0.335158817086528,2204,,558,,102,021,TRUE
s001,tp_15,no_tp,10,familiarization,431-542,4,3,1,5,4,2,43,0.502738225629792,2696,,1184,,102,021,TRUE
s001,tp_15,no_tp,11,familiarization,324-323,3,2,4,3,2,3,481,0.982475355969332,2313,,1100,,102,021,TRUE
s001,tp_15,no_tp,12,familiarization,133-515,1,3,3,5,1,5,-1,0.454545454545455,2366,,838,,102,021,TRUE
s001,tp_15,no_tp,13,familiarization,552-323,5,5,2,3,2,3,-36,0.416210295728368,1750,,1415,,102,021,TRUE
s001,tp_15,no_tp,14,familiarization,543-343,5,4,3,3,4,3,138,0.606790799561884,3751,,658,,102,021,TRUE
s001,tp_15,no_tp,15,familiarization,543-455,5,4,3,4,5,5,-8,0.446878422782037,1820,,910,,102,021,TRUE
s001,tp_15,no_tp,16,familiarization,124-414,1,2,4,4,1,4,-102,0.343921139101862,1678,,589,,102,021,TRUE
s001,tp_15,no_tp,17,familiarization,155-254,1,5,5,2,5,4,128,0.595837897042716,2092,,918,,102,021,TRUE
s001,tp_15,no_tp,18,familiarization,441-441,4,4,1,4,4,1,460,0.95947426067908,2113,,933,,102,021,TRUE
s001,tp_15,no_tp,19,familiarization,432-321,4,3,2,3,2,1,-29,0.423877327491785,2426,,709,,102,021,TRUE
s001,tp_15,no_tp,20,familiarization,345-554,3,4,5,5,5,4,-60,0.389923329682366,1178,,632,,102,021,TRUE
s001,tp_15,no_tp,21,familiarization,423-124,4,2,3,1,2,4,-64,0.385542168674699,1364,,510,,102,021,TRUE
s001,tp_15,no_tp,22,familiarization,213-414,2,1,3,4,1,4,-66,0.383351588170865,1739,,943,,102,021,TRUE
s001,tp_15,no_tp,23,familiarization,411-421,4,1,1,4,2,1,-65,0.384446878422782,1344,,959,,102,021,TRUE
s001,tp_15,no_tp,24,familiarization,223-324,2,2,3,3,2,4,47,0.507119386637459,1290,,661,,102,021,TRUE
s001,tp_15,no_tp,25,familiarization,314-314,3,1,4,3,1,4,494,0.99671412924425,1348,,1457,,102,021,TRUE
s001,tp_15,no_tp,26,familiarization,552-532,5,5,2,5,3,2,124,0.591456736035049,1725,,574,,102,021,TRUE
s001,tp_15,no_tp,27,familiarization,232-312,2,3,2,3,1,2,-31,0.421686746987952,1190,,689,,102,021,TRUE
s001,tp_15,no_tp,28,familiarization,141-242,1,4,1,2,4,2,189,0.662650602409639,2550,,948,,102,021,TRUE
s001,tp_15,no_tp,29,familiarization,443-445,4,4,3,4,4,5,249,0.728368017524644,1712,,819,,102,021,TRUE
s001,tp_15,no_tp,30,familiarization,223-115,2,2,3,1,1,5,15,0.472070098576123,1406,,783,,102,021,TRUE
s001,tp_15,no_tp,31,familiarization,251-255,2,5,1,2,5,5,-82,0.365826944140197,1343,,630,,102,021,TRUE
s001,tp_15,no_tp,32,familiarization,235-535,2,3,5,5,3,5,93,0.55750273822563,1639,,997,,102,021,TRUE
s001,tp_15,no_tp,33,familiarization,141-532,1,4,1,5,3,2,-214,0.221248630887185,1087,,717,,102,021,TRUE
s001,tp_15,no_tp,34,familiarization,453-443,4,5,3,4,4,3,195,0.669222343921139,3337,,1002,,102,021,TRUE
s001,tp_15,tp,35,familiarization,231-231,2,3,1,2,3,1,,,,204.6,,1000,102,021,TRUE
s001,tp_15,tp,36,familiarization,324-324,3,2,4,3,2,4,,,,204.6,,1000,102,021,TRUE
s001,tp_15,tp,37,familiarization,522-532,5,2,2,5,3,2,,,,204.6,,1000,102,021,TRUE
s001,tp_15,tp,38,familiarization,312-422,3,1,2,4,2,2,,,,204.6,,1000,102,021,TRUE
s001,tp_15,tp,39,familiarization,324-331,3,2,4,3,3,1,,,184,204.6,,1000,102,021,TRUE
s001,tp_15,tp,40,familiarization,235-335,2,3,5,3,3,5,,,,204.6,,1000,102,021,TRUE
s001,tp_15,tp,41,familiarization,521-131,5,2,1,1,3,1,63,0.524644030668127,172,204.6,752,1000,102,021,TRUE
s001,tp_15,tp,42,familiarization,314-141,3,1,4,1,4,1,,,,204.6,,1000,102,021,TRUE
s001,tp_15,tp,43,familiarization,232-345,2,3,2,3,4,5,,,,204.6,,1000,102,021,TRUE
s001,tp_15,tp,44,familiarization,431-542,4,3,1,5,4,2,,,,204.6,,1000,102,021,TRUE
s001,tp_15,tp,45,familiarization,324-323,3,2,4,3,2,3,12,0.468784227820372,187,204.6,912,1000,102,021,TRUE
s001,tp_15,tp,46,familiarization,133-515,1,3,3,5,1,5,,,,204.6,,1000,102,021,TRUE
s001,tp_15,tp,47,familiarization,552-323,5,5,2,3,2,3,,,,204.6,,1000,102,021,TRUE
s001,tp_15,tp,48,familiarization,543-343,5,4,3,3,4,3,45,0.504928806133625,190,204.6,716,1000,102,021,TRUE
s001,tp_15,tp,49,familiarization,543-455,5,4,3,4,5,5,,,,204.6,,1000,102,021,TRUE
s001,tp_15,tp,50,familiarization,124-414,1,2,4,4,1,4,,,,204.6,,1000,102,021,TRUE
s001,tp_15,tp,51,familiarization,155-254,1,5,5,2,5,4,,,,204.6,,1000,102,021,TRUE
s001,tp_15,tp,52,familiarization,441-441,4,4,1,4,4,1,-33,0.419496166484118,182,204.6,885,1000,102,021,TRUE
s001,tp_15,tp,53,familiarization,432-321,4,3,2,3,2,1,,,,204.6,,1000,102,021,TRUE
s001,tp_15,tp,54,familiarization,345-554,3,4,5,5,5,4,,,197,204.6,,1000,102,021,TRUE
s001,tp_15,tp,55,familiarization,423-124,4,2,3,1,2,4,80,0.543263964950712,175,204.6,631,1000,102,021,TRUE
s001,tp_15,tp,56,familiarization,213-414,2,1,3,4,1,4,,,178,204.6,,1000,102,021,TRUE
s001,tp_15,tp,57,familiarization,411-421,4,1,1,4,2,1,-16,0.438116100766703,168,204.6,602,1000,102,021,TRUE
s001,tp_15,tp,58,familiarization,223-324,2,2,3,3,2,4,17,0.474260679079956,199,204.6,560,1000,102,021,TRUE
s001,tp_15,tp,59,familiarization,314-314,3,1,4,3,1,4,263,0.743702081051479,181,204.6,766,1000,102,021,TRUE
s001,tp_15,tp,60,familiarization,552-532,5,5,2,5,3,2,,,,204.6,,1000,102,021,TRUE
s001,tp_15,tp,61,familiarization,232-312,2,3,2,3,1,2,,,,204.6,,1000,102,021,TRUE
s001,tp_15,tp,62,familiarization,141-242,1,4,1,2,4,2,,,148,204.6,,1000,102,021,TRUE
s001,tp_15,tp,63,familiarization,443-445,4,4,3,4,4,5,178,0.650602409638554,188,204.6,545,1000,102,021,TRUE
s001,tp_15,tp,64,familiarization,223-115,2,2,3,1,1,5,,,,204.6,,1000,102,021,TRUE
s001,tp_15,tp,65,familiarization,251-255,2,5,1,2,5,5,,,,204.6,,1000,102,021,TRUE
s001,tp_15,tp,66,familiarization,235-535,2,3,5,5,3,5,,,,204.6,,1000,102,021,TRUE
s001,tp_15,tp,67,familiarization,141-532,1,4,1,5,3,2,,,,204.6,,1000,102,021,TRUE
s001,tp_15,tp,68,familiarization,453-443,4,5,3,4,4,3,,,,204.6,,1000,102,021,TRUE
s001,tp_15,tp,69,all-equal,245-245,2,4,5,2,4,5,,,,204.6,,1000,102,021,TRUE
s001,tp_15,tp,70,two-small,342-333,3,4,2,3,3,3,,,178,204.6,,1000,102,021,TRUE
s001,tp_15,tp,71,two-large,451-415,4,5,1,4,1,5,72,0.534501642935378,70,204.6,340,1000,102,021,TRUE
s001,tp_15,tp,72,one-large,513-553,5,1,3,5,5,3,166,0.637458926615553,175,204.6,564,1000,102,021,TRUE
s001,tp_15,tp,73,all-different,555-222,5,5,5,2,2,2,249,0.728368017524644,198,204.6,1000,1000,102,021,TRUE
s001,tp_15,tp,74,all-small,224-313,2,2,4,3,1,3,275,0.75684556407448,156,204.6,534,1000,102,021,TRUE
s001,tp_15,tp,75,all-equal,353-353,3,5,3,3,5,3,262,0.742606790799562,175,204.6,618,1000,102,021,TRUE
s001,tp_15,tp,76,all-small,222-113,2,2,2,1,1,3,253,0.732749178532311,205,204.6,507,1000,102,021,TRUE
s001,tp_15,tp,77,two-small,344-434,3,4,4,4,3,4,,,,204.6,,1000,102,021,TRUE
s001,tp_15,tp,78,all-different,111-444,1,1,1,4,4,4,,,,204.6,,1000,102,021,TRUE
s001,tp_15,tp,79,one-large,145-545,1,4,5,5,4,5,,,,204.6,,1000,102,021,TRUE
s001,tp_15,tp,80,all-equal,112-112,1,1,2,1,1,2,,,,204.6,,1000,102,021,TRUE
s001,tp_15,tp,81,one-large,351-355,3,5,1,3,5,5,,,,204.6,,1000,102,021,TRUE
s001,tp_15,tp,82,two-small,352-451,3,5,2,4,5,1,103,0.568455640744797,154,204.6,577,1000,102,021,TRUE
s001,tp_15,tp,83,all-equal,112-112,1,1,2,1,1,2,,,,204.6,,1000,102,021,TRUE
s001,tp_15,tp,84,all-different,555-444,5,5,5,4,4,4,,,,204.6,,1000,102,021,TRUE
s001,tp_15,tp,85,all-different,111-222,1,1,1,2,2,2,,,,204.6,,1000,102,021,TRUE
s001,tp_15,tp,86,all-small,234-145,2,3,4,1,4,5,,,,204.6,,1000,102,021,TRUE
s001,tp_15,tp,87,two-large,153-513,1,5,3,5,1,3,,,145,204.6,,1000,102,021,TRUE
s001,tp_15,tp,88,all-different,111-555,1,1,1,5,5,5,82,0.545454545454545,199,204.6,381,1000,102,021,TRUE
s001,tp_15,tp,89,two-large,145-541,1,4,5,5,4,1,,,,204.6,,1000,102,021,TRUE
s001,tp_15,tp,90,two-small,344-434,3,4,4,4,3,4,,,,204.6,,1000,102,021,TRUE
s001,tp_15,tp,91,one-large,145-545,1,4,5,5,4,5,,,,204.6,,1000,102,021,TRUE
s001,tp_15,tp,92,two-large,451-415,4,5,1,4,1,5,321,0.807228915662651,178,204.6,660,1000,102,021,TRUE
s001,tp_15,tp,93,two-small,352-451,3,5,2,4,5,1,,,,204.6,,1000,102,021,TRUE
s001,tp_15,tp,94,two-large,145-541,1,4,5,5,4,1,,,,204.6,,1000,102,021,TRUE
s001,tp_15,tp,95,all-small,224-313,2,2,4,3,1,3,257,0.737130339539978,51,204.6,437,1000,102,021,TRUE
s001,tp_15,tp,96,two-small,342-333,3,4,2,3,3,3,,,,204.6,,1000,102,021,TRUE
s001,tp_15,tp,97,one-large,513-553,5,1,3,5,5,3,17,0.474260679079956,106,204.6,540,1000,102,021,TRUE
s001,tp_15,tp,98,one-large,351-355,3,5,1,3,5,5,-15,0.43921139101862,155,204.6,505,1000,102,021,TRUE
s001,tp_15,tp,99,two-large,153-513,1,5,3,5,1,3,,,,204.6,,1000,102,021,TRUE
s001,tp_15,tp,100,all-small,222-113,2,2,2,1,1,3,27,0.485213581599124,70,204.6,405,1000,102,021,TRUE
s001,tp_15,tp,101,all-small,234-145,2,3,4,1,4,5,,,,204.6,,1000,102,021,TRUE
s001,tp_15,tp,102,one-large,145-545,1,4,5,5,4,5,-22,0.431544359255203,58,204.6,406,1000,102,021,TRUE
s001,tp_15,tp,103,two-small,352-451,3,5,2,4,5,1,7,0.463307776560789,188,204.6,380,1000,102,021,TRUE
s001,tp_15,tp,104,all-small,224-313,2,2,4,3,1,3,-48,0.403066812705367,155,204.6,341,1000,102,021,TRUE
s001,tp_15,tp,105,all-small,222-113,2,2,2,1,1,3,-1,0.454545454545455,201,204.6,483,1000,102,021,TRUE
s001,tp_15,tp,106,two-large,451-415,4,5,1,4,1,5,3,0.458926615553122,181,204.6,381,1000,102,021,TRUE
s001,tp_15,tp,107,one-large,513-553,5,1,3,5,5,3,-18,0.43592552026287,132,204.6,382,1000,102,021,TRUE
s001,tp_15,tp,108,two-small,344-434,3,4,4,4,3,4,,,52,204.6,,1000,102,021,TRUE
s001,tp_15,tp,109,two-large,145-541,1,4,5,5,4,1,-170,0.269441401971522,163,204.6,761,1000,102,021,TRUE
s001,tp_15,tp,110,all-small,234-145,2,3,4,1,4,5,,,,204.6,,1000,102,021,TRUE
s001,tp_15,tp,111,two-small,342-333,3,4,2,3,3,3,,,,204.6,,1000,102,021,TRUE
s001,tp_15,tp,112,one-large,351-355,3,5,1,3,5,5,,,,204.6,,1000,102,021,TRUE
s001,tp_15,tp,113,two-large,153-513,1,5,3,5,1,3,,,,204.6,,1000,102,021,TRUE
s001,tp_15,tp,114,one-large,513-553,5,1,3,5,5,3,,,,204.6,,1000,102,021,TRUE
s001,tp_15,tp,115,all-equal,112-112,1,1,2,1,1,2,23,0.480832420591457,179,204.6,718,1000,102,021,TRUE
s001,tp_15,tp,116,two-small,352-451,3,5,2,4,5,1,-39,0.412924424972618,148,204.6,501,1000,102,021,TRUE
s001,tp_15,tp,117,all-different,111-444,1,1,1,4,4,4,,,196,204.6,,1000,102,021,TRUE
s001,tp_15,tp,118,all-different,111-222,1,1,1,2,2,2,0,0.455640744797371,160,204.6,577,1000,102,021,TRUE
s001,tp_15,tp,119,all-small,224-313,2,2,4,3,1,3,,,,204.6,,1000,102,021,TRUE
s001,tp_15,tp,120,all-different,555-222,5,5,5,2,2,2,-194,0.24315443592552,194,204.6,519,1000,102,021,TRUE
s001,tp_15,tp,121,all-different,111-555,1,1,1,5,5,5,,,,204.6,,1000,102,021,TRUE
s001,tp_15,tp,122,all-different,555-444,5,5,5,4,4,4,,,,204.6,,1000,102,021,TRUE
s001,tp_15,tp,123,two-small,342-333,3,4,2,3,3,3,-22,0.431544359255203,171,204.6,768,1000,102,021,TRUE
s001,tp_15,tp,124,all-equal,353-353,3,5,3,3,5,3,,,,204.6,,1000,102,021,TRUE
s001,tp_15,tp,125,all-small,222-113,2,2,2,1,1,3,,,,204.6,,1000,102,021,TRUE
s001,tp_15,tp,126,all-small,234-145,2,3,4,1,4,5,,,,204.6,,1000,102,021,TRUE
s001,tp_15,tp,127,all-equal,112-112,1,1,2,1,1,2,,,198,204.6,,1000,102,021,TRUE
s001,tp_15,tp,128,two-large,153-513,1,5,3,5,1,3,11,0.467688937568456,198,204.6,674,1000,102,021,TRUE
s001,tp_15,tp,129,two-small,344-434,3,4,4,4,3,4,5,0.461117196056955,204,204.6,412,1000,102,021,TRUE
s001,tp_15,tp,130,all-equal,245-245,2,4,5,2,4,5,,,,204.6,,1000,102,021,TRUE
s001,tp_15,tp,131,two-large,145-541,1,4,5,5,4,1,-332,0.0920043811610077,204,204.6,705,1000,102,021,TRUE
s001,tp_15,tp,132,two-large,451-415,4,5,1,4,1,5,,,,204.6,,1000,102,021,TRUE
s001,tp_15,tp,133,one-large,145-545,1,4,5,5,4,5,,,,204.6,,1000,102,021,TRUE
s001,tp_15,tp,134,one-large,351-355,3,5,1,3,5,5,-314,0.111719605695509,162,204.6,918,1000,102,021,TRUE
s001,tp_15,no_tp,135,all-different,111-555,1,1,1,5,5,5,-416,0,2021,204.6,1174,1000,102,021,TRUE
s001,tp_15,no_tp,136,all-equal,112-112,1,1,2,1,1,2,494,0.99671412924425,1044,204.6,791,1000,102,021,TRUE
s001,tp_15,no_tp,137,all-different,111-444,1,1,1,4,4,4,-270,0.159912376779847,951,204.6,672,1000,102,021,TRUE
s001,tp_15,no_tp,138,two-large,145-541,1,4,5,5,4,1,-291,0.136911281489595,1134,204.6,1025,1000,102,021,TRUE
s001,tp_15,no_tp,139,one-large,351-355,3,5,1,3,5,5,-56,0.394304490690033,789,204.6,1357,1000,102,021,TRUE
s001,tp_15,no_tp,140,all-equal,353-353,3,5,3,3,5,3,495,0.997809419496167,1443,204.6,1010,1000,102,021,TRUE
s001,tp_15,no_tp,141,two-small,342-333,3,4,2,3,3,3,22,0.47973713033954,1472,204.6,721,1000,102,021,TRUE
s001,tp_15,no_tp,142,two-small,344-434,3,4,4,4,3,4,387,0.879518072289157,1589,204.6,1732,1000,102,021,TRUE
s001,tp_15,no_tp,143,two-large,153-513,1,5,3,5,1,3,-30,0.422782037239869,1149,204.6,1131,1000,102,021,TRUE
s001,tp_15,no_tp,144,all-equal,245-245,2,4,5,2,4,5,485,0.986856516976999,1143,204.6,2085,1000,102,021,TRUE
s001,tp_15,no_tp,145,one-large,145-545,1,4,5,5,4,5,-302,0.12486308871851,1710,204.6,1214,1000,102,021,TRUE
s001,tp_15,no_tp,146,all-small,222-113,2,2,2,1,1,3,-265,0.16538882803943,776,204.6,854,1000,102,021,TRUE
s001,tp_15,no_tp,147,all-small,234-145,2,3,4,1,4,5,-25,0.428258488499452,2283,204.6,1099,1000,102,021,TRUE
s001,tp_15,no_tp,148,one-large,513-553,5,1,3,5,5,3,-75,0.373493975903614,1772,204.6,918,1000,102,021,TRUE
s001,tp_15,no_tp,149,two-large,451-415,4,5,1,4,1,5,-38,0.414019715224535,1216,204.6,603,1000,102,021,TRUE
s001,tp_15,no_tp,150,all-different,555-222,5,5,5,2,2,2,-150,0.291347207009858,1150,204.6,607,1000,102,021,TRUE
s001,tp_15,no_tp,151,all-different,555-444,5,5,5,4,4,4,181,0.653888280394305,1123,204.6,1612,1000,102,021,TRUE
s001,tp_15,no_tp,152,two-small,352-451,3,5,2,4,5,1,248,0.727272727272727,1031,204.6,694,1000,102,021,TRUE
s001,tp_15,no_tp,153,all-equal,112-112,1,1,2,1,1,2,494,0.99671412924425,1145,204.6,1187,1000,102,021,TRUE
s001,tp_15,no_tp,154,all-small,224-313,2,2,4,3,1,3,25,0.48302300109529,1466,204.6,620,1000,102,021,TRUE
s001,tp_15,no_tp,155,all-different,111-222,1,1,1,2,2,2,-20,0.433734939759036,1306,204.6,995,1000,102,021,TRUE
s001,tp_15,no_tp,156,two-large,153-513,1,5,3,5,1,3,-245,0.187294633077766,808,204.6,446,1000,102,021,TRUE
s001,tp_15,no_tp,157,all-small,234-145,2,3,4,1,4,5,-196,0.240963855421687,1991,204.6,463,1000,102,021,TRUE
s001,tp_15,no_tp,158,all-small,224-313,2,2,4,3,1,3,-154,0.286966046002191,1319,204.6,515,1000,102,021,TRUE
s001,tp_15,no_tp,159,one-large,351-355,3,5,1,3,5,5,-237,0.1960569550931,1286,204.6,1171,1000,102,021,TRUE
s001,tp_15,no_tp,160,two-small,344-434,3,4,4,4,3,4,-266,0.164293537787514,892,204.6,854,1000,102,021,TRUE
s001,tp_15,no_tp,161,two-small,342-333,3,4,2,3,3,3,-292,0.135815991237678,862,204.6,699,1000,102,021,TRUE
s001,tp_15,no_tp,162,one-large,145-545,1,4,5,5,4,5,-258,0.173055859802848,1539,204.6,729,1000,102,021,TRUE
s001,tp_15,no_tp,163,two-large,145-541,1,4,5,5,4,1,-270,0.159912376779847,717,204.6,705,1000,102,021,TRUE
s001,tp_15,no_tp,164,one-large,513-553,5,1,3,5,5,3,-268,0.16210295728368,1020,204.6,851,1000,102,021,TRUE
s001,tp_15,no_tp,165,two-small,352-451,3,5,2,4,5,1,-262,0.168674698795181,634,204.6,810,1000,102,021,TRUE
s001,tp_15,no_tp,166,two-large,451-415,4,5,1,4,1,5,-235,0.198247535596933,534,204.6,724,1000,102,021,TRUE
s001,tp_15,no_tp,167,all-small,222-113,2,2,2,1,1,3,-268,0.16210295728368,659,204.6,663,1000,102,021,TRUE
s001,tp_15,no_tp,168,two-small,344-434,3,4,4,4,3,4,-300,0.127053669222344,841,204.6,594,1000,102,021,TRUE
s001,tp_15,no_tp,169,one-large,145-545,1,4,5,5,4,5,-323,0.101861993428258,1709,204.6,774,1000,102,021,TRUE
s001,tp_15,no_tp,170,two-large,451-415,4,5,1,4,1,5,-267,0.163198247535597,830,204.6,674,1000,102,021,TRUE
s001,tp_15,no_tp,171,all-small,222-113,2,2,2,1,1,3,-145,0.296823658269441,558,204.6,890,1000,102,021,TRUE
s001,tp_15,no_tp,172,two-large,145-541,1,4,5,5,4,1,-264,0.166484118291347,263,204.6,504,1000,102,021,TRUE
s001,tp_15,no_tp,173,all-small,234-145,2,3,4,1,4,5,-7,0.447973713033954,1176,204.6,1690,1000,102,021,TRUE
s001,tp_15,no_tp,174,all-small,224-313,2,2,4,3,1,3,-71,0.377875136911281,968,204.6,648,1000,102,021,TRUE
s001,tp_15,no_tp,175,one-large,513-553,5,1,3,5,5,3,-191,0.246440306681271,1909,204.6,1128,1000,102,021,TRUE
s001,tp_15,no_tp,176,two-small,352-451,3,5,2,4,5,1,-106,0.339539978094195,1071,204.6,890,1000,102,021,TRUE
s001,tp_15,no_tp,177,one-large,351-355,3,5,1,3,5,5,-360,0.0613362541073385,1201,204.6,596,1000,102,021,TRUE
s001,tp_15,no_tp,178,two-small,342-333,3,4,2,3,3,3,136,0.60460021905805,718,204.6,612,1000,102,021,TRUE
s001,tp_15,no_tp,179,two-large,153-513,1,5,3,5,1,3,-235,0.198247535596933,1990,204.6,781,1000,102,021,TRUE
s001,tp_15,no_tp,180,two-large,153-513,1,5,3,5,1,3,-250,0.181818181818182,758,204.6,687,1000,102,021,TRUE
s001,tp_15,no_tp,181,two-small,344-434,3,4,4,4,3,4,-235,0.198247535596933,820,204.6,506,1000,102,021,TRUE
s001,tp_15,no_tp,182,all-different,555-222,5,5,5,2,2,2,-299,0.128148959474261,1344,204.6,699,1000,102,021,TRUE
s001,tp_15,no_tp,183,all-equal,353-353,3,5,3,3,5,3,-290,0.138006571741512,602,204.6,734,1000,102,021,TRUE
s001,tp_15,no_tp,184,all-equal,112-112,1,1,2,1,1,2,483,0.984665936473165,212,204.6,1674,1000,102,021,TRUE
s001,tp_15,no_tp,185,two-large,451-415,4,5,1,4,1,5,-276,0.153340635268346,490,204.6,383,1000,102,021,TRUE
s001,tp_15,no_tp,186,two-small,342-333,3,4,2,3,3,3,-236,0.197152245345016,1151,204.6,793,1000,102,021,TRUE
s001,tp_15,no_tp,187,all-equal,112-112,1,1,2,1,1,2,412,0.906900328587076,883,204.6,547,1000,102,021,TRUE
s001,tp_15,no_tp,188,one-large,145-545,1,4,5,5,4,5,-94,0.352683461117196,845,204.6,668,1000,102,021,TRUE
s001,tp_15,no_tp,189,one-large,513-553,5,1,3,5,5,3,-198,0.238773274917853,258,204.6,536,1000,102,021,TRUE
s001,tp_15,no_tp,190,all-different,111-555,1,1,1,5,5,5,-412,0.00438116100766703,786,204.6,821,1000,102,021,TRUE
s001,tp_15,no_tp,191,all-equal,245-245,2,4,5,2,4,5,492,0.994523548740416,1547,204.6,921,1000,102,021,TRUE
s001,tp_15,no_tp,192,one-large,351-355,3,5,1,3,5,5,-341,0.0821467688937569,900,204.6,665,1000,102,021,TRUE
s001,tp_15,no_tp,193,all-different,111-444,1,1,1,4,4,4,-357,0.0646221248630887,780,204.6,613,1000,102,021,TRUE
s001,tp_15,no_tp,194,all-small,234-145,2,3,4,1,4,5,168,0.639649507119387,1239,204.6,929,1000,102,021,TRUE
s001,tp_15,no_tp,195,all-different,555-444,5,5,5,4,4,4,465,0.964950711938664,717,204.6,735,1000,102,021,TRUE
s001,tp_15,no_tp,196,two-small,352-451,3,5,2,4,5,1,70,0.532311062431544,303,204.6,502,1000,102,021,TRUE
s001,tp_15,no_tp,197,two-large,145-541,1,4,5,5,4,1,-23,0.430449069003286,880,204.6,976,1000,102,021,TRUE
s001,tp_15,no_tp,198,all-small,222-113,2,2,2,1,1,3,9,0.465498357064622,1134,204.6,781,1000,102,021,TRUE
s001,tp_15,no_tp,199,all-different,111-222,1,1,1,2,2,2,-125,0.318729463307777,719,204.6,677,1000,102,021,TRUE
s001,tp_15,no_tp,200,all-small,224-313,2,2,4,3,1,3,-68,0.381161007667032,1063,204.6,679,1000,102,021,TRUE
s002,tp_15,no_tp,1,familiarization,533-543,5,3,3,5,4,3,321,0.820486815415821,4629,,1438,,012,012,FALSE
s002,tp_15,no_tp,2,familiarization,153-451,1,5,3,4,5,1,-7,0.487829614604462,3996,,837,,012,012,FALSE
s002,tp_15,no_tp,3,familiarization,322-421,3,2,2,4,2,1,222,0.720081135902637,2523,,1619,,012,012,FALSE
s002,tp_15,no_tp,4,familiarization,123-124,1,2,3,1,2,4,335,0.834685598377282,2223,,1216,,012,012,FALSE
s002,tp_15,no_tp,5,familiarization,431-334,4,3,1,3,3,4,-18,0.476673427991886,3257,,1374,,012,012,FALSE
s002,tp_15,no_tp,6,familiarization,445-545,4,4,5,5,4,5,372,0.872210953346856,2915,,1130,,012,012,FALSE
s002,tp_15,no_tp,7,familiarization,534-335,5,3,4,3,3,5,-196,0.296146044624746,1408,,1060,,012,012,FALSE
s002,tp_15,no_tp,8,familiarization,225-153,2,2,5,1,5,3,-309,0.181541582150101,2346,,1263,,012,012,FALSE
s002,tp_15,no_tp,9,familiarization,225-245,2,2,5,2,4,5,65,0.560851926977688,3936,,1032,,012,012,FALSE
s002,tp_15,no_tp,10,familiarization,155-155,1,5,5,1,5,5,479,0.980730223123732,2426,,1082,,012,012,FALSE
s002,tp_15,no_tp,11,familiarization,224-344,2,2,4,3,4,4,1,0.495943204868154,2641,,1130,,012,012,FALSE
s002,tp_15,no_tp,12,familiarization,533-315,5,3,3,3,1,5,-218,0.273833671399594,2700,,1213,,012,012,FALSE
s002,tp_15,no_tp,13,familiarization,513-252,5,1,3,2,5,2,-347,0.143002028397566,2651,,1052,,012,012,FALSE
s002,tp_15,no_tp,14,familiarization,252-255,2,5,2,2,5,5,-11,0.483772819472617,2658,,784,,012,012,FALSE
s002,tp_15,no_tp,15,familiarization,141-433,1,4,1,4,3,3,-354,0.135902636916836,3769,,915,,012,012,FALSE
s002,tp_15,no_tp,16,familiarization,115-451,1,1,5,4,5,1,-488,0,3217,,933,,012,012,FALSE
s002,tp_15,no_tp,17,familiarization,432-431,4,3,2,4,3,1,230,0.728194726166329,2548,,903,,012,012,FALSE
s002,tp_15,no_tp,18,familiarization,242-545,2,4,2,5,4,5,-126,0.367139959432049,2604,,1086,,012,012,FALSE
s002,tp_15,no_tp,19,familiarization,244-543,2,4,4,5,4,3,-180,0.31237322515213,3169,,992,,012,012,FALSE
s002,tp_15,no_tp,20,familiarization,541-533,5,4,1,5,3,3,-10,0.484787018255578,3961,,1432,,012,012,FALSE
s002,tp_15,no_tp,21,familiarization,523-151,5,2,3,1,5,1,-387,0.102434077079108,2134,,1613,,012,012,FALSE
s002,tp_15,no_tp,22,familiarization,351-124,3,5,1,1,2,4,-351,0.13894523326572,3702,,916,,012,012,FALSE
s002,tp_15,no_tp,23,familiarization,335-535,3,3,5,5,3,5,59,0.554766734279919,2349,,863,,012,012,FALSE
s002,tp_15,no_tp,24,familiarization,524-524,5,2,4,5,2,4,492,0.993914807302231,1007,,1101,,012,012,FALSE
s002,tp_15,no_tp,25,familiarization,544-534,5,4,4,5,3,4,273,0.771805273833671,2597,,1901,,012,012,FALSE
s002,tp_15,no_tp,26,familiarization,335-511,3,3,5,5,1,1,-283,0.207910750507099,2088,,1105,,012,012,FALSE
s002,tp_15,no_tp,27,familiarization,425-425,4,2,5,4,2,5,478,0.979716024340771,2411,,2697,,012,012,FALSE
s002,tp_15,no_tp,28,familiarization,543-254,5,4,3,2,5,4,-163,0.329614604462475,3286,,1206,,012,012,FALSE
s002,tp_15,no_tp,29,familiarization,454-414,4,5,4,4,1,4,-72,0.421906693711968,2526,,1315,,012,012,FALSE
s002,tp_15,no_tp,30,familiarization,412-425,4,1,2,4,2,5,-170,0.322515212981744,3001,,1104,,012,012,FALSE
s002,tp_15,no_tp,31,familiarization,431-221,4,3,1,2,2,1,31,0.526369168356998,3012,,1325,,012,012,FALSE
s002,tp_15,no_tp,32,familiarization,454-434,4,5,4,4,3,4,316,0.815415821501014,3572,,986,,012,012,FALSE
s002,tp_15,no_tp,33,familiarization,412-412,4,1,2,4,1,2,481,0.982758620689655,1003,,1112,,012,012,FALSE
s002,tp_15,no_tp,34,familiarization,553-112,5,5,3,1,1,2,-432,0.0567951318458418,4666,,1858,,012,012,FALSE
s002,tp_15,no_tp,35,all-small,332-223,3,3,2,2,2,3,117,0.613590263691684,5912,389.55,1906,1883.8,012,012,FALSE
s002,tp_15,no_tp,36,all-small,232-323,2,3,2,3,2,3,130,0.626774847870183,2690,389.55,1013,1883.8,012,012,FALSE
s002,tp_15,no_tp,37,two-large,135-531,1,3,5,5,3,1,-88,0.405679513184584,3488,389.55,2603,1883.8,012,012,FALSE
s002,tp_15,no_tp,38,all-different,444-111,4,4,4,1,1,1,-427,0.0618661257606491,3431,389.55,2856,1883.8,012,012,FALSE
s002,tp_15,no_tp,39,all-small,353-442,3,5,3,4,4,2,-280,0.210953346855984,897,389.55,1477,1883.8,012,012,FALSE
s002,tp_15,no_tp,40,two-large,152-512,1,5,2,5,1,2,-410,0.0791075050709939,5544,389.55,1413,1883.8,012,012,FALSE
s002,tp_15,no_tp,41,two-small,413-422,4,1,3,4,2,2,37,0.532454361054767,2775,389.55,1590,1883.8,012,012,FALSE
s002,tp_15,no_tp,42,all-equal,525-525,5,2,5,5,2,5,484,0.98580121703854,718,389.55,1937,1883.8,012,012,FALSE
s002,tp_15,no_tp,43,all-equal,341-341,3,4,1,3,4,1,478,0.979716024340771,2084,389.55,1407,1883.8,012,012,FALSE
s002,tp_15,no_tp,44,two-large,251-215,2,5,1,2,1,5,-288,0.202839756592292,2568,389.55,1092,1883.8,012,012,FALSE
s002,tp_15,no_tp,45,two-small,243-342,2,4,3,3,4,2,219,0.717038539553753,2845,389.55,2003,1883.8,012,012,FALSE
s002,tp_15,no_tp,46,one-large,114-514,1,1,4,5,1,4,-415,0.0740365111561866,1828,389.55,1984,1883.8,012,012,FALSE
s002,tp_15,no_tp,47,one-large,455-415,4,5,5,4,1,5,-239,0.252535496957404,2292,389.55,1264,1883.8,012,012,FALSE
s002,tp_15,no_tp,48,all-different,555-111,5,5,5,1,1,1,-487,0.00101419878296146,2238,389.55,1445,1883.8,012,012,FALSE
s002,tp_15,no_tp,49,two-small,324-234,3,2,4,2,3,4,343,0.842799188640974,2067,389.55,1143,1883.8,012,012,FALSE
s002,tp_15,no_tp,50,all-equal,311-311,3,1,1,3,1,1,498,1,1743,389.55,1979,1883.8,012,012,FALSE
s002,tp_15,no_tp,51,all-different,222-111,2,2,2,1,1,1,4,0.498985801217039,570,389.55,1556,1883.8,012,012,FALSE
s002,tp_15,no_tp,52,all-different,444-555,4,4,4,5,5,5,32,0.52738336713996,2000,389.55,1262,1883.8,012,012,FALSE
s002,tp_15,no_tp,53,all-equal,422-422,4,2,2,4,2,2,494,0.995943204868154,2861,389.55,1967,1883.8,012,012,FALSE
s002,tp_15,no_tp,54,all-different,222-555,2,2,2,5,5,5,-126,0.367139959432049,1687,389.55,2082,1883.8,012,012,FALSE
s002,tp_15,no_tp,55,one-large,121-125,1,2,1,1,2,5,-179,0.313387423935091,3242,389.55,1062,1883.8,012,012,FALSE
s002,tp_15,no_tp,56,two-large,135-531,1,3,5,5,3,1,-278,0.212981744421907,3262,389.55,1227,1883.8,012,012,FALSE
s002,tp_15,no_tp,57,two-small,243-342,2,4,3,3,4,2,141,0.637931034482759,3019,389.55,1158,1883.8,012,012,FALSE
s002,tp_15,no_tp,58,all-small,353-442,3,5,3,4,4,2,104,0.600405679513185,2205,389.55,1128,1883.8,012,012,FALSE
s002,tp_15,no_tp,59,one-large,121-125,1,2,1,1,2,5,-127,0.366125760649087,2473,389.55,1685,1883.8,012,012,FALSE
s002,tp_15,no_tp,60,all-small,232-323,2,3,2,3,2,3,-183,0.309330628803245,2938,389.55,870,1883.8,012,012,FALSE
s002,tp_15,no_tp,61,two-small,413-422,4,1,3,4,2,2,26,0.521298174442191,2077,389.55,1497,1883.8,012,012,FALSE
s002,tp_15,no_tp,62,two-small,324-234,3,2,4,2,3,4,173,0.670385395537525,1057,389.55,1658,1883.8,012,012,FALSE
s002,tp_15,no_tp,63,one-large,114-514,1,1,4,5,1,4,-108,0.385395537525355,1787,389.55,1450,1883.8,012,012,FALSE
s002,tp_15,no_tp,64,two-large,152-512,1,5,2,5,1,2,-271,0.220081135902637,2020,389.55,2242,1883.8,012,012,FALSE
s002,tp_15,no_tp,65,one-large,455-415,4,5,5,4,1,5,-180,0.31237322515213,398,389.55,1560,1883.8,012,012,FALSE
s002,tp_15,no_tp,66,two-large,251-215,2,5,1,2,1,5,-368,0.121703853955375,2726,389.55,1001,1883.8,012,012,FALSE
s002,tp_15,no_tp,67,all-small,332-223,3,3,2,2,2,3,134,0.630831643002028,4105,389.55,1400,1883.8,012,012,FALSE
s002,tp_15,no_tp,68,two-large,135-531,1,3,5,5,3,1,-34,0.460446247464503,2784,389.55,1258,1883.8,012,012,FALSE
s002,tp_15,no_tp,69,one-large,114-514,1,1,4,5,1,4,-382,0.107505070993915,1645,389.55,1434,1883.8,012,012,FALSE
s002,tp_15,no_tp,70,two-large,251-215,2,5,1,2,1,5,-227,0.264705882352941,2138,389.55,2700,1883.8,012,012,FALSE
s002,tp_15,no_tp,71,all-small,353-442,3,5,3,4,4,2,228,0.726166328600406,423,389.55,985,1883.8,012,012,FALSE
s002,tp_15,no_tp,72,two-large,152-512,1,5,2,5,1,2,-101,0.392494929006085,2253,389.55,1612,1883.8,012,012,FALSE
s002,tp_15,no_tp,73,one-large,455-415,4,5,5,4,1,5,-333,0.157200811359026,2199,389.55,730,1883.8,012,012,FALSE
s002,tp_15,no_tp,74,all-small,332-223,3,3,2,2,2,3,221,0.719066937119676,1844,389.55,1449,1883.8,012,012,FALSE
s002,tp_15,no_tp,75,one-large,121-125,1,2,1,1,2,5,8,0.503042596348884,2393,389.55,1000,1883.8,012,012,FALSE
s002,tp_15,no_tp,76,all-small,232-323,2,3,2,3,2,3,325,0.824543610547667,1446,389.55,1113,1883.8,012,012,FALSE
s002,tp_15,no_tp,77,two-small,324-234,3,2,4,2,3,4,226,0.724137931034483,2161,389.55,1145,1883.8,012,012,FALSE
s002,tp_15,no_tp,78,two-small,413-422,4,1,3,4,2,2,282,0.780933062880325,2854,389.55,1009,1883.8,012,012,FALSE
s002,tp_15,no_tp,79,two-small,243-342,2,4,3,3,4,2,180,0.677484787018256,4306,389.55,888,1883.8,012,012,FALSE
s002,tp_15,no_tp,80,two-small,413-422,4,1,3,4,2,2,78,0.574036511156187,3289,389.55,866,1883.8,012,012,FALSE
s002,tp_15,no_tp,81,all-different,444-111,4,4,4,1,1,1,-429,0.0598377281947262,1854,389.55,1315,1883.8,012,012,FALSE
s002,tp_15,no_tp,82,all-different,222-555,2,2,2,5,5,5,-445,0.0436105476673428,3468,389.55,1130,1883.8,012,012,FALSE
s002,tp_15,no_tp,83,all-small,332-223,3,3,2,2,2,3,56,0.551724137931035,1914,389.55,971,1883.8,012,012,FALSE
s002,tp_15,no_tp,84,all-equal,341-341,3,4,1,3,4,1,496,0.997971602434077,1653,389.55,1227,1883.8,012,012,FALSE
s002,tp_15,no_tp,85,one-large,121-125,1,2,1,1,2,5,-90,0.403651115618661,2298,389.55,763,1883.8,012,012,FALSE
s002,tp_15,no_tp,86,one-large,455-415,4,5,5,4,1,5,-131,0.362068965517241,1792,389.55,773,1883.8,012,012,FALSE
s002,tp_15,no_tp,87,all-different,444-555,4,4,4,5,5,5,398,0.898580121703854,1764,389.55,2484,1883.8,012,012,FALSE
s002,tp_15,no_tp,88,all-different,222-111,2,2,2,1,1,1,341,0.840770791075051,2013,389.55,1697,1883.8,012,012,FALSE
s002,tp_15,no_tp,89,all-equal,422-422,4,2,2,4,2,2,495,0.996957403651116,1667,389.55,3859,1883.8,012,012,FALSE
s002,tp_15,no_tp,90,all-different,555-111,5,5,5,1,1,1,-437,0.0517241379310345,1011,389.55,1050,1883.8,012,012,FALSE
s002,tp_15,no_tp,91,two-small,324-234,3,2,4,2,3,4,103,0.599391480730223,2441,389.55,1282,1883.8,012,012,FALSE
s002,tp_15,no_tp,92,one-large,114-514,1,1,4,5,1,4,2,0.496957403651116,2426,389.55,2817,1883.8,012,012,FALSE
s002,tp_15,no_tp,93,two-small,243-342,2,4,3,3,4,2,142,0.63894523326572,2971,389.55,827,1883.8,012,012,FALSE
s002,tp_15,no_tp,94,two-large,251-215,2,5,1,2,1,5,-158,0.334685598377282,2191,389.55,859,1883.8,012,012,FALSE
s002,tp_15,no_tp,95,all-equal,525-525,5,2,5,5,2,5,495,0.996957403651116,2105,389.55,1305,1883.8,012,012,FALSE
s002,tp_15,no_tp,96,all-small,232-323,2,3,2,3,2,3,58,0.553752535496957,2615,389.55,2250,1883.8,012,012,FALSE
s002,tp_15,no_tp,97,all-equal,311-311,3,1,1,3,1,1,489,0.990872210953347,1642,389.55,1056,1883.8,012,012,FALSE
s002,tp_15,no_tp,98,all-small,353-442,3,5,3,4,4,2,77,0.573022312373225,2756,389.55,1302,1883.8,012,012,FALSE
s002,tp_15,no_tp,99,two-large,152-512,1,5,2,5,1,2,74,0.569979716024341,2118,389.55,1773,1883.8,012,012,FALSE
s002,tp_15,no_tp,100,two-large,135-531,1,3,5,5,3,1,-8,0.486815415821501,2888,389.55,1649,1883.8,012,012,FALSE
s002,tp_15,tp,101,familiarization,533-543,5,3,3,5,4,3,,,,389.55,,1883.8,012,012,FALSE
s002,tp_15,tp,102,familiarization,153-451,1,5,3,4,5,1,,,,389.55,,1883.8,012,012,FALSE
s002,tp_15,tp,103,familiarization,322-421,3,2,2,4,2,1,,,284,389.55,,1883.8,012,012,FALSE
s002,tp_15,tp,104,familiarization,123-124,1,2,3,1,2,4,-65,0.429006085192698,306,389.55,820,1883.8,012,012,FALSE
s002,tp_15,tp,105,familiarization,431-334,4,3,1,3,3,4,,,,389.55,,1883.8,012,012,FALSE
s002,tp_15,tp,106,familiarization,445-545,4,4,5,5,4,5,442,0.943204868154158,255,389.55,905,1883.8,012,012,FALSE
s002,tp_15,tp,107,familiarization,534-335,5,3,4,3,3,5,194,0.691683569979716,273,389.55,1044,1883.8,012,012,FALSE
s002,tp_15,tp,108,familiarization,225-153,2,2,5,1,5,3,-10,0.484787018255578,376,389.55,1152,1883.8,012,012,FALSE
s002,tp_15,tp,109,familiarization,225-245,2,2,5,2,4,5,461,0.962474645030426,222,389.55,807,1883.8,012,012,FALSE
s002,tp_15,tp,110,familiarization,155-155,1,5,5,1,5,5,430,0.931034482758621,185,389.55,909,1883.8,012,012,FALSE
s002,tp_15,tp,111,familiarization,224-344,2,2,4,3,4,4,-26,0.468559837728195,195,389.55,965,1883.8,012,012,FALSE
s002,tp_15,tp,112,familiarization,533-315,5,3,3,3,1,5,55,0.550709939148073,377,389.55,1087,1883.8,012,012,FALSE
s002,tp_15,tp,113,familiarization,513-252,5,1,3,2,5,2,,,,389.55,,1883.8,012,012,FALSE
s002,tp_15,tp,114,familiarization,252-255,2,5,2,2,5,5,-166,0.32657200811359,176,389.55,1492,1883.8,012,012,FALSE
s002,tp_15,tp,115,familiarization,141-433,1,4,1,4,3,3,13,0.508113590263692,209,389.55,1272,1883.8,012,012,FALSE
s002,tp_15,tp,116,familiarization,115-451,1,1,5,4,5,1,-221,0.27079107505071,182,389.55,1373,1883.8,012,012,FALSE
s002,tp_15,tp,117,familiarization,432-431,4,3,2,4,3,1,113,0.609533468559838,205,389.55,952,1883.8,012,012,FALSE
s002,tp_15,tp,118,familiarization,242-545,2,4,2,5,4,5,-147,0.345841784989858,171,389.55,1670,1883.8,012,012,FALSE
s002,tp_15,tp,119,familiarization,244-543,2,4,4,5,4,3,367,0.867139959432049,206,389.55,1248,1883.8,012,012,FALSE
s002,tp_15,tp,120,familiarization,541-533,5,4,1,5,3,3,-33,0.461460446247465,185,389.55,809,1883.8,012,012,FALSE
s002,tp_15,tp,121,familiarization,523-151,5,2,3,1,5,1,285,0.783975659229209,199,389.55,1050,1883.8,012,012,FALSE
s002,tp_15,tp,122,familiarization,351-124,3,5,1,1,2,4,-144,0.348884381338742,169,389.55,988,1883.8,012,012,FALSE
s002,tp_15,tp,123,familiarization,335-535,3,3,5,5,3,5,470,0.971602434077079,281,389.55,904,1883.8,012,012,FALSE
s002,tp_15,tp,124,familiarization,524-524,5,2,4,5,2,4,295,0.794117647058824,179,389.55,1485,1883.8,012,012,FALSE
s002,tp_15,tp,125,familiarization,544-534,5,4,4,5,3,4,172,0.669371196754564,136,389.55,1100,1883.8,012,012,FALSE
s002,tp_15,tp,126,familiarization,335-511,3,3,5,5,1,1,-113,0.380324543610548,162,389.55,865,1883.8,012,012,FALSE
s002,tp_15,tp,127,familiarization,425-425,4,2,5,4,2,5,275,0.773833671399594,301,389.55,1119,1883.8,012,012,FALSE
s002,tp_15,tp,128,familiarization,543-254,5,4,3,2,5,4,-65,0.429006085192698,343,389.55,1225,1883.8,012,012,FALSE
s002,tp_15,tp,129,familiarization,454-414,4,5,4,4,1,4,155,0.652129817444219,229,389.55,1732,1883.8,012,012,FALSE
s002,tp_15,tp,130,familiarization,412-425,4,1,2,4,2,5,,,45,389.55,,1883.8,012,012,FALSE
s002,tp_15,tp,131,familiarization,431-221,4,3,1,2,2,1,-156,0.336713995943205,246,389.55,1078,1883.8,012,012,FALSE
s002,tp_15,tp,132,familiarization,454-434,4,5,4,4,3,4,242,0.740365111561866,71,389.55,1005,1883.8,012,012,FALSE
s002,tp_15,tp,133,familiarization,412-412,4,1,2,4,1,2,384,0.884381338742394,166,389.55,1861,1883.8,012,012,FALSE
s002,tp_15,tp,134,familiarization,553-112,5,5,3,1,1,2,336,0.835699797160243,187,389.55,1219,1883.8,012,012,FALSE
s002,tp_15,tp,135,all-equal,525-525,5,2,5,5,2,5,,,,389.55,,1883.8,012,012,FALSE
s002,tp_15,tp,136,all-equal,341-341,3,4,1,3,4,1,379,0.879310344827586,204,389.55,1190,1883.8,012,012,FALSE
s002,tp_15,tp,137,two-large,251-215,2,5,1,2,1,5,-167,0.325557809330629,259,389.55,954,1883.8,012,012,FALSE
s002,tp_15,tp,138,one-large,121-125,1,2,1,1,2,5,-257,0.234279918864097,218,389.55,1407,1883.8,012,012,FALSE
s002,tp_15,tp,139,two-small,413-422,4,1,3,4,2,2,181,0.678498985801217,233,389.55,1285,1883.8,012,012,FALSE
s002,tp_15,tp,140,all-equal,311-311,3,1,1,3,1,1,387,0.887423935091278,252,389.55,1219,1883.8,012,012,FALSE
s002,tp_15,tp,141,all-different,555-111,5,5,5,1,1,1,-272,0.219066937119675,227,389.55,1184,1883.8,012,012,FALSE
s002,tp_15,tp,142,two-small,243-342,2,4,3,3,4,2,126,0.622718052738337,193,389.55,1186,1883.8,012,012,FALSE
s002,tp_15,tp,143,all-different,222-555,2,2,2,5,5,5,-226,0.265720081135903,204,389.55,1693,1883.8,012,012,FALSE
s002,tp_15,tp,144,two-large,135-531,1,3,5,5,3,1,-382,0.107505070993915,256,389.55,1197,1883.8,012,012,FALSE
s002,tp_15,tp,145,all-small,232-323,2,3,2,3,2,3,,,,389.55,,1883.8,012,012,FALSE
s002,tp_15,tp,146,all-different,444-555,4,4,4,5,5,5,,,,389.55,,1883.8,012,012,FALSE
s002,tp_15,tp,147,all-different,444-111,4,4,4,1,1,1,,,191,389.55,,1883.8,012,012,FALSE
s002,tp_15,tp,148,one-large,114-514,1,1,4,5,1,4,-285,0.205882352941176,271,389.55,1351,1883.8,012,012,FALSE
s002,tp_15,tp,149,all-small,332-223,3,3,2,2,2,3,-21,0.473630831643002,208,389.55,1349,1883.8,012,012,FALSE
s002,tp_15,tp,150,all-small,353-442,3,5,3,4,4,2,-78,0.415821501014199,220,389.55,828,1883.8,012,012,FALSE
s002,tp_15,tp,151,two-small,324-234,3,2,4,2,3,4,333,0.832657200811359,309,389.55,776,1883.8,012,012,FALSE
s002,tp_15,tp,152,all-different,222-111,2,2,2,1,1,1,-48,0.446247464503043,230,389.55,1048,1883.8,012,012,FALSE
s002,tp_15,tp,153,two-large,152-512,1,5,2,5,1,2,354,0.85395537525355,186,389.55,1071,1883.8,012,012,FALSE
s002,tp_15,tp,154,all-equal,422-422,4,2,2,4,2,2,182,0.679513184584179,235,389.55,1066,1883.8,012,012,FALSE
s002,tp_15,tp,155,one-large,455-415,4,5,5,4,1,5,446,0.947261663286004,315,389.55,900,1883.8,012,012,FALSE
s002,tp_15,tp,156,one-large,114-514,1,1,4,5,1,4,83,0.579107505070994,214,389.55,1085,1883.8,012,012,FALSE
s002,tp_15,tp,157,two-large,152-512,1,5,2,5,1,2,-158,0.334685598377282,215,389.55,1360,1883.8,012,012,FALSE
s002,tp_15,tp,158,one-large,121-125,1,2,1,1,2,5,,,,389.55,,1883.8,012,012,FALSE
s002,tp_15,tp,159,all-small,232-323,2,3,2,3,2,3,80,0.57606490872211,166,389.55,1303,1883.8,012,012,FALSE
s002,tp_15,tp,160,one-large,455-415,4,5,5,4,1,5,370,0.870182555780933,380,389.55,782,1883.8,012,012,FALSE
s002,tp_15,tp,161,two-large,251-215,2,5,1,2,1,5,,,,389.55,,1883.8,012,012,FALSE
s002,tp_15,tp,162,two-large,135-531,1,3,5,5,3,1,-242,0.249492900608519,168,389.55,1140,1883.8,012,012,FALSE
s002,tp_15,tp,163,all-small,332-223,3,3,2,2,2,3,65,0.560851926977688,383,389.55,749,1883.8,012,012,FALSE
s002,tp_15,tp,164,all-small,353-442,3,5,3,4,4,2,68,0.563894523326572,286,389.55,730,1883.8,012,012,FALSE
s002,tp_15,tp,165,two-small,243-342,2,4,3,3,4,2,-51,0.443204868154158,381,389.55,732,1883.8,012,012,FALSE
s002,tp_15,tp,166,two-small,324-234,3,2,4,2,3,4,,,,389.55,,1883.8,012,012,FALSE
s002,tp_15,tp,167,two-small,413-422,4,1,3,4,2,2,,,,389.55,,1883.8,012,012,FALSE
s002,tp_15,tp,168,two-large,135-531,1,3,5,5,3,1,-225,0.266734279918864,179,389.55,950,1883.8,012,012,FALSE
s002,tp_15,tp,169,two-large,251-215,2,5,1,2,1,5,,,,389.55,,1883.8,012,012,FALSE
s002,tp_15,tp,170,one-large,114-514,1,1,4,5,1,4,-268,0.223123732251521,256,389.55,1116,1883.8,012,012,FALSE
s002,tp_15,tp,171,two-small,324-234,3,2,4,2,3,4,435,0.936105476673428,273,389.55,997,1883.8,012,012,FALSE
s002,tp_15,tp,172,two-large,152-512,1,5,2,5,1,2,426,0.926977687626775,171,389.55,896,1883.8,012,012,FALSE
s002,tp_15,tp,173,one-large,121-125,1,2,1,1,2,5,-262,0.22920892494929,192,389.55,679,1883.8,012,012,FALSE
s002,tp_15,tp,174,all-small,332-223,3,3,2,2,2,3,50,0.545638945233266,265,389.55,784,1883.8,012,012,FALSE
s002,tp_15,tp,175,all-small,353-442,3,5,3,4,4,2,234,0.732251521298174,187,389.55,1276,1883.8,012,012,FALSE
s002,tp_15,tp,176,all-small,232-323,2,3,2,3,2,3,45,0.540567951318459,201,389.55,964,1883.8,012,012,FALSE
s002,tp_15,tp,177,one-large,455-415,4,5,5,4,1,5,299,0.798174442190669,233,389.55,729,1883.8,012,012,FALSE
s002,tp_15,tp,178,two-small,243-342,2,4,3,3,4,2,108,0.604462474645031,324,389.55,1047,1883.8,012,012,FALSE
s002,tp_15,tp,179,two-small,413-422,4,1,3,4,2,2,-97,0.396551724137931,220,389.55,968,1883.8,012,012,FALSE
s002,tp_15,tp,180,two-large,152-512,1,5,2,5,1,2,303,0.802231237322515,221,389.55,815,1883.8,012,012,FALSE
s002,tp_15,tp,181,all-equal,311-311,3,1,1,3,1,1,-51,0.443204868154158,337,389.55,1051,1883.8,012,012,FALSE
s002,tp_15,tp,182,two-small,413-422,4,1,3,4,2,2,-204,0.288032454361055,190,389.55,761,1883.8,012,012,FALSE
s002,tp_15,tp,183,one-large,455-415,4,5,5,4,1,5,465,0.966531440162272,236,389.55,863,1883.8,012,012,FALSE
s002,tp_15,tp,184,one-large,114-514,1,1,4,5,1,4,294,0.793103448275862,243,389.55,957,1883.8,012,012,FALSE
s002,tp_15,tp,185,two-small,324-234,3,2,4,2,3,4,388,0.888438133874239,288,389.55,1094,1883.8,012,012,FALSE
s002,tp_15,tp,186,all-small,332-223,3,3,2,2,2,3,111,0.607505070993915,370,389.55,1085,1883.8,012,012,FALSE
s002,tp_15,tp,187,all-different,444-111,4,4,4,1,1,1,,,,389.55,,1883.8,012,012,FALSE
s002,tp_15,tp,188,all-small,232-323,2,3,2,3,2,3,326,0.825557809330629,191,389.55,1178,1883.8,012,012,FALSE
s002,tp_15,tp,189,all-different,222-111,2,2,2,1,1,1,145,0.641987829614604,249,389.55,1150,1883.8,012,012,FALSE
s002,tp_15,tp,190,all-different,555-111,5,5,5,1,1,1,,,,389.55,,1883.8,012,012,FALSE
s002,tp_15,tp,191,all-equal,525-525,5,2,5,5,2,5,150,0.647058823529412,208,389.55,1258,1883.8,012,012,FALSE
s002,tp_15,tp,192,two-small,243-342,2,4,3,3,4,2,44,0.539553752535497,379,389.55,1179,1883.8,012,012,FALSE
s002,tp_15,tp,193,two-large,135-531,1,3,5,5,3,1,-53,0.441176470588235,192,389.55,1179,1883.8,012,012,FALSE
s002,tp_15,tp,194,one-large,121-125,1,2,1,1,2,5,-86,0.407707910750507,267,389.55,1016,1883.8,012,012,FALSE
s002,tp_15,tp,195,all-different,444-555,4,4,4,5,5,5,294,0.793103448275862,293,389.55,758,1883.8,012,012,FALSE
s002,tp_15,tp,196,all-equal,341-341,3,4,1,3,4,1,281,0.779918864097363,300,389.55,1311,1883.8,012,012,FALSE
s002,tp_15,tp,197,all-equal,422-422,4,2,2,4,2,2,419,0.919878296146045,221,389.55,883,1883.8,012,012,FALSE
s002,tp_15,tp,198,two-large,251-215,2,5,1,2,1,5,-259,0.232251521298174,287,389.55,703,1883.8,012,012,FALSE
s002,tp_15,tp,199,all-small,353-442,3,5,3,4,4,2,-39,0.455375253549696,264,389.55,873,1883.8,012,012,FALSE
s002,tp_15,tp,200,all-different,222-555,2,2,2,5,5,5,-118,0.37525354969574,201,389.55,1553,1883.8,012,012,FALSE
s003,tp_15,no_tp,1,familiarization,443-112,4,4,3,1,1,2,-279,0.164339419978518,3870,,2161,,120,102,TRUE
s003,tp_15,no_tp,2,familiarization,254-254,2,5,4,2,5,4,497,0.997851772287862,3870,,2520,,120,102,TRUE
s003,tp_15,no_tp,3,familiarization,211-213,2,1,1,2,1,3,132,0.605800214822771,2736,,1315,,120,102,TRUE
s003,tp_15,no_tp,4,familiarization,535-434,5,3,5,4,3,4,334,0.822771213748657,4313,,1414,,120,102,TRUE
s003,tp_15,no_tp,5,familiarization,253-413,2,5,3,4,1,3,92,0.562835660580022,4363,,2437,,120,102,TRUE
s003,tp_15,no_tp,6,familiarization,532-525,5,3,2,5,2,5,-282,0.161117078410312,3436,,1311,,120,102,TRUE
s003,tp_15,no_tp,7,familiarization,143-121,1,4,3,1,2,1,,,3700,,3000,,120,102,TRUE
s003,tp_15,no_tp,8,familiarization,142-542,1,4,2,5,4,2,323,0.810955961331901,2698,,1680,,120,102,TRUE
s003,tp_15,no_tp,9,familiarization,544-542,5,4,4,5,4,2,177,0.654135338345865,1906,,1623,,120,102,TRUE
s003,tp_15,no_tp,10,familiarization,511-345,5,1,1,3,4,5,-288,0.154672395273899,1190,,1116,,120,102,TRUE
s003,tp_15,no_tp,11,familiarization,344-414,3,4,4,4,1,4,172,0.648764769065521,2517,,1612,,120,102,TRUE
s003,tp_15,no_tp,12,familiarization,213-143,2,1,3,1,4,3,78,0.547798066595059,2542,,2219,,120,102,TRUE
s003,tp_15,no_tp,13,familiarization,113-452,1,1,3,4,5,2,-318,0.122448979591837,3479,,1880,,120,102,TRUE
s003,tp_15,no_tp,14,familiarization,125-451,1,2,5,4,5,1,-411,0.0225563909774436,2047,,1477,,120,102,TRUE
s003,tp_15,no_tp,15,familiarization,124-124,1,2,4,1,2,4,375,0.866809881847476,2984,,1868,,120,102,TRUE
s003,tp_15,no_tp,16,familiarization,124-245,1,2,4,2,4,5,50,0.517722878625134,2334,,2652,,120,102,TRUE
s003,tp_15,no_tp,17,familiarization,312-432,3,1,2,4,3,2,-171,0.280343716433942,700,,1261,,120,102,TRUE
s003,tp_15,no_tp,18,familiarization,532-532,5,3,2,5,3,2,491,0.99140708915145,2178,,2472,,120,102,TRUE
s003,tp_15,no_tp,19,familiarization,225-115,2,2,5,1,1,5,176,0.653061224489796,2372,,1558,,120,102,TRUE
s003,tp_15,no_tp,20,familiarization,321-331,3,2,1,3,3,1,326,0.814178302900107,2317,,1400,,120,102,TRUE
s003,tp_15,no_tp,21,familiarization,535-313,5,3,5,3,1,3,21,0.486573576799141,3427,,925,,120,102,TRUE
s003,tp_15,no_tp,22,familiarization,144-344,1,4,4,3,4,4,312,0.799140708915145,2228,,1058,,120,102,TRUE
s003,tp_15,no_tp,23,familiarization,421-425,4,2,1,4,2,5,332,0.82062298603652,2296,,1011,,120,102,TRUE
s003,tp_15,no_tp,24,familiarization,155-311,1,5,5,3,1,1,-432,0,2542,,857,,120,102,TRUE
s003,tp_15,no_tp,25,familiarization,442-213,4,4,2,2,1,3,-119,0.336197636949517,2040,,1104,,120,102,TRUE
s003,tp_15,no_tp,26,familiarization,422-425,4,2,2,4,2,5,339,0.828141783029001,2250,,988,,120,102,TRUE
s003,tp_15,no_tp,27,familiarization,523-525,5,2,3,5,2,5,278,0.762620837808808,2165,,1143,,120,102,TRUE
s003,tp_15,no_tp,28,familiarization,524-421,5,2,4,4,2,1,279,0.763694951664876,1833,,925,,120,102,TRUE
s003,tp_15,no_tp,29,familiarization,442-454,4,4,2,4,5,4,26,0.491944146079485,2521,,805,,120,102,TRUE
s003,tp_15,no_tp,30,familiarization,115-522,1,1,5,5,2,2,-240,0.206229860365199,1835,,703,,120,102,TRUE
s003,tp_15,no_tp,31,familiarization,232-232,2,3,2,2,3,2,495,0.995703544575725,2022,,1539,,120,102,TRUE
s003,tp_15,no_tp,32,familiarization,232-432,2,3,2,4,3,2,362,0.852846401718582,2100,,822,,120,102,TRUE
s003,tp_15,no_tp,33,familiarization,353-352,3,5,3,3,5,2,442,0.938775510204082,2498,,904,,120,102,TRUE
s003,tp_15,no_tp,34,familiarization,513-455,5,1,3,4,5,5,156,0.631578947368421,2044,,1313,,120,102,TRUE
s003,tp_15,tp,35,familiarization,443-112,4,4,3,1,1,2,,,,334.2,,1365.2,120,102,TRUE
s003,tp_15,tp,36,familiarization,254-254,2,5,4,2,5,4,,,,334.2,,1365.2,120,102,TRUE
s003,tp_15,tp,37,familiarization,211-213,2,1,1,2,1,3,,,221,334.2,,1365.2,120,102,TRUE
s003,tp_15,tp,38,familiarization,535-434,5,3,5,4,3,4,,,,334.2,,1365.2,120,102,TRUE
s003,tp_15,tp,39,familiarization,253-413,2,5,3,4,1,3,,,,334.2,,1365.2,120,102,TRUE
s003,tp_15,tp,40,familiarization,532-525,5,3,2,5,2,5,,,,334.2,,1365.2,120,102,TRUE
s003,tp_15,tp,41,familiarization,143-121,1,4,3,1,2,1,,,,334.2,,1365.2,120,102,TRUE
s003,tp_15,tp,42,familiarization,142-542,1,4,2,5,4,2,44,0.511278195488722,240,334.2,830,1365.2,120,102,TRUE
s003,tp_15,tp,43,familiarization,544-542,5,4,4,5,4,2,,,,334.2,,1365.2,120,102,TRUE
s003,tp_15,tp,44,familiarization,511-345,5,1,1,3,4,5,,,,334.2,,1365.2,120,102,TRUE
s003,tp_15,tp,45,familiarization,344-414,3,4,4,4,1,4,,,,334.2,,1365.2,120,102,TRUE
s003,tp_15,tp,46,familiarization,213-143,2,1,3,1,4,3,-163,0.288936627282492,216,334.2,864,1365.2,120,102,TRUE
s003,tp_15,tp,47,familiarization,113-452,1,1,3,4,5,2,,,,334.2,,1365.2,120,102,TRUE
s003,tp_15,tp,48,familiarization,125-451,1,2,5,4,5,1,,,,334.2,,1365.2,120,102,TRUE
s003,tp_15,tp,49,familiarization,124-124,1,2,4,1,2,4,,,,334.2,,1365.2,120,102,TRUE
s003,tp_15,tp,50,familiarization,124-245,1,2,4,2,4,5,,,,334.2,,1365.2,120,102,TRUE
s003,tp_15,tp,51,familiarization,312-432,3,1,2,4,3,2,,,,334.2,,1365.2,120,102,TRUE
s003,tp_15,tp,52,familiarization,532-532,5,3,2,5,3,2,,,,334.2,,1365.2,120,102,TRUE
s003,tp_15,tp,53,familiarization,225-115,2,2,5,1,1,5,,,,334.2,,1365.2,120,102,TRUE
s003,tp_15,tp,54,familiarization,321-331,3,2,1,3,3,1,7,0.471535982814178,178,334.2,1056,1365.2,120,102,TRUE
s003,tp_15,tp,55,familiarization,535-313,5,3,5,3,1,3,,,,334.2,,1365.2,120,102,TRUE
s003,tp_15,tp,56,familiarization,144-344,1,4,4,3,4,4,-112,0.343716433941998,170,334.2,843,1365.2,120,102,TRUE
s003,tp_15,tp,57,familiarization,421-425,4,2,1,4,2,5,-100,0.356605800214823,224,334.2,759,1365.2,120,102,TRUE
s003,tp_15,tp,58,familiarization,155-311,1,5,5,3,1,1,-97,0.359828141783029,307,334.2,839,1365.2,120,102,TRUE
s003,tp_15,tp,59,familiarization,442-213,4,4,2,2,1,3,-211,0.237379162191192,224,334.2,791,1365.2,120,102,TRUE
s003,tp_15,tp,60,familiarization,422-425,4,2,2,4,2,5,237,0.718582169709989,315,334.2,887,1365.2,120,102,TRUE
s003,tp_15,tp,61,familiarization,523-525,5,2,3,5,2,5,,,,334.2,,1365.2,120,102,TRUE
s003,tp_15,tp,62,familiarization,524-421,5,2,4,4,2,1,,,,334.2,,1365.2,120,102,TRUE
s003,tp_15,tp,63,familiarization,442-454,4,4,2,4,5,4,264,0.747583243823845,239,334.2,882,1365.2,120,102,TRUE
s003,tp_15,tp,64,familiarization,115-522,1,1,5,5,2,2,,,,334.2,,1365.2,120,102,TRUE
s003,tp_15,tp,65,familiarization,232-232,2,3,2,2,3,2,,,,334.2,,1365.2,120,102,TRUE
s003,tp_15,tp,66,familiarization,232-432,2,3,2,4,3,2,127,0.600429645542428,242,334.2,862,1365.2,120,102,TRUE
s003,tp_15,tp,67,familiarization,353-352,3,5,3,3,5,2,,,,334.2,,1365.2,120,102,TRUE
s003,tp_15,tp,68,familiarization,513-455,5,1,3,4,5,5,,,,334.2,,1365.2,120,102,TRUE
s003,tp_15,tp,69,all-small,433-324,4,3,3,3,2,4,,,,334.2,,1365.2,120,102,TRUE
s003,tp_15,tp,70,two-small,244-235,2,4,4,2,3,5,-104,0.352309344790548,241,334.2,742,1365.2,120,102,TRUE
s003,tp_15,tp,71,two-large,154-514,1,5,4,5,1,4,,,,334.2,,1365.2,120,102,TRUE
s003,tp_15,tp,72,two-small,341-431,3,4,1,4,3,1,,,,334.2,,1365.2,120,102,TRUE
s003,tp_15,tp,73,all-small,322-431,3,2,2,4,3,1,,,,334.2,,1365.2,120,102,TRUE
s003,tp_15,tp,74,one-large,153-553,1,5,3,5,5,3,254,0.736842105263158,188,334.2,825,1365.2,120,102,TRUE
s003,tp_15,tp,75,one-large,541-545,5,4,1,5,4,5,257,0.740064446831364,291,334.2,818,1365.2,120,102,TRUE
s003,tp_15,tp,76,two-small,354-255,3,5,4,2,5,5,409,0.903329752953813,201,334.2,1023,1365.2,120,102,TRUE
s003,tp_15,tp,77,all-small,222-133,2,2,2,1,3,3,-200,0.249194414607948,264,334.2,681,1365.2,120,102,TRUE
s003,tp_15,tp,78,two-large,215-251,2,1,5,2,5,1,,,,334.2,,1365.2,120,102,TRUE
s003,tp_15,tp,79,one-large,315-355,3,1,5,3,5,5,,,,334.2,,1365.2,120,102,TRUE
s003,tp_15,tp,80,two-large,145-541,1,4,5,5,4,1,164,0.640171858216971,180,334.2,905,1365.2,120,102,TRUE
s003,tp_15,tp,81,all-different,111-444,1,1,1,4,4,4,,,,334.2,,1365.2,120,102,TRUE
s003,tp_15,tp,82,all-different,555-222,5,5,5,2,2,2,,,,334.2,,1365.2,120,102,TRUE
s003,tp_15,tp,83,one-large,541-545,5,4,1,5,4,5,229,0.709989258861439,160,334.2,1017,1365.2,120,102,TRUE
s003,tp_15,tp,84,two-small,244-235,2,4,4,2,3,5,-97,0.359828141783029,181,334.2,971,1365.2,120,102,TRUE
s003,tp_15,tp,85,all-equal,351-351,3,5,1,3,5,1,350,0.839957035445757,268,334.2,904,1365.2,120,102,TRUE
s003,tp_15,tp,86,all-small,433-324,4,3,3,3,2,4,81,0.551020408163265,283,334.2,868,1365.2,120,102,TRUE
s003,tp_15,tp,87,two-small,341-431,3,4,1,4,3,1,253,0.735767991407089,195,334.2,739,1365.2,120,102,TRUE
s003,tp_15,tp,88,all-different,555-444,5,5,5,4,4,4,331,0.819548872180451,226,334.2,685,1365.2,120,102,TRUE
s003,tp_15,tp,89,two-small,354-255,3,5,4,2,5,5,327,0.815252416756176,219,334.2,694,1365.2,120,102,TRUE
s003,tp_15,tp,90,all-equal,214-214,2,1,4,2,1,4,-293,0.149301825993555,253,334.2,817,1365.2,120,102,TRUE
s003,tp_15,tp,91,all-small,322-431,3,2,2,4,3,1,247,0.729323308270677,301,334.2,860,1365.2,120,102,TRUE
s003,tp_15,tp,92,all-different,111-555,1,1,1,5,5,5,280,0.764769065520945,223,334.2,783,1365.2,120,102,TRUE
s003,tp_15,tp,93,two-large,145-541,1,4,5,5,4,1,341,0.830290010741139,261,334.2,686,1365.2,120,102,TRUE
s003,tp_15,tp,94,all-different,111-222,1,1,1,2,2,2,-175,0.276047261009667,217,334.2,1164,1365.2,120,102,TRUE
s003,tp_15,tp,95,all-equal,515-515,5,1,5,5,1,5,51,0.518796992481203,225,334.2,1032,1365.2,120,102,TRUE
s003,tp_15,tp,96,two-large,154-514,1,5,4,5,1,4,-96,0.360902255639098,219,334.2,752,1365.2,120,102,TRUE
s003,tp_15,tp,97,all-equal,554-554,5,5,4,5,5,4,413,0.907626208378088,225,334.2,764,1365.2,120,102,TRUE
s003,tp_15,tp,98,one-large,315-355,3,1,5,3,5,5,-145,0.308270676691729,234,334.2,753,1365.2,120,102,TRUE
s003,tp_15,tp,99,all-small,222-133,2,2,2,1,3,3,-209,0.23952738990333,314,334.2,1293,1365.2,120,102,TRUE
s003,tp_15,tp,100,one-large,153-553,1,5,3,5,5,3,447,0.944146079484425,298,334.2,1356,1365.2,120,102,TRUE
s003,tp_15,tp,101,two-large,215-251,2,1,5,2,5,1,-120,0.335123523093448,313,334.2,732,1365.2,120,102,TRUE
s003,tp_15,tp,102,two-small,341-431,3,4,1,4,3,1,,,,334.2,,1365.2,120,102,TRUE
s003,tp_15,tp,103,all-small,322-431,3,2,2,4,3,1,,,,334.2,,1365.2,120,102,TRUE
s003,tp_15,tp,104,two-small,244-235,2,4,4,2,3,5,,,,334.2,,1365.2,120,102,TRUE
s003,tp_15,tp,105,two-large,154-514,1,5,4,5,1,4,-294,0.148227712137487,253,334.2,993,1365.2,120,102,TRUE
s003,tp_15,tp,106,two-small,354-255,3,5,4,2,5,5,,,,334.2,,1365.2,120,102,TRUE
s003,tp_15,tp,107,one-large,315-355,3,1,5,3,5,5,,,,334.2,,1365.2,120,102,TRUE
s003,tp_15,tp,108,all-small,433-324,4,3,3,3,2,4,,,,334.2,,1365.2,120,102,TRUE
s003,tp_15,tp,109,two-large,145-541,1,4,5,5,4,1,-185,0.26530612244898,255,334.2,795,1365.2,120,102,TRUE
s003,tp_15,tp,110,one-large,541-545,5,4,1,5,4,5,-59,0.400644468313641,146,334.2,1015,1365.2,120,102,TRUE
s003,tp_15,tp,111,one-large,153-553,1,5,3,5,5,3,183,0.660580021482277,168,334.2,906,1365.2,120,102,TRUE
s003,tp_15,tp,112,all-small,222-133,2,2,2,1,3,3,-182,0.268528464017186,189,334.2,737,1365.2,120,102,TRUE
s003,tp_15,tp,113,two-large,215-251,2,1,5,2,5,1,359,0.849624060150376,174,334.2,742,1365.2,120,102,TRUE
s003,tp_15,tp,114,all-different,555-222,5,5,5,2,2,2,354,0.844253490870032,161,334.2,984,1365.2,120,102,TRUE
s003,tp_15,tp,115,all-small,433-324,4,3,3,3,2,4,-176,0.274973147153598,187,334.2,750,1365.2,120,102,TRUE
s003,tp_15,tp,116,two-small,341-431,3,4,1,4,3,1,174,0.650912996777659,216,334.2,672,1365.2,120,102,TRUE
s003,tp_15,tp,117,two-large,145-541,1,4,5,5,4,1,218,0.698174006444683,168,334.2,920,1365.2,120,102,TRUE
s003,tp_15,tp,118,all-different,555-444,5,5,5,4,4,4,275,0.759398496240602,132,334.2,1112,1365.2,120,102,TRUE
s003,tp_15,tp,119,one-large,153-553,1,5,3,5,5,3,120,0.592910848549946,170,334.2,752,1365.2,120,102,TRUE
s003,tp_15,tp,120,two-small,244-235,2,4,4,2,3,5,296,0.781954887218045,202,334.2,730,1365.2,120,102,TRUE
s003,tp_15,tp,121,all-different,111-444,1,1,1,4,4,4,212,0.691729323308271,197,334.2,771,1365.2,120,102,TRUE
s003,tp_15,tp,122,all-small,322-431,3,2,2,4,3,1,,,,334.2,,1365.2,120,102,TRUE
s003,tp_15,tp,123,all-equal,214-214,2,1,4,2,1,4,-156,0.296455424274973,182,334.2,724,1365.2,120,102,TRUE
s003,tp_15,tp,124,all-different,111-555,1,1,1,5,5,5,-202,0.247046186895811,220,334.2,821,1365.2,120,102,TRUE
s003,tp_15,tp,125,all-equal,351-351,3,5,1,3,5,1,,,,334.2,,1365.2,120,102,TRUE
s003,tp_15,tp,126,all-small,222-133,2,2,2,1,3,3,-242,0.204081632653061,288,334.2,873,1365.2,120,102,TRUE
s003,tp_15,tp,127,one-large,315-355,3,1,5,3,5,5,-132,0.322234156820623,233,334.2,915,1365.2,120,102,TRUE
s003,tp_15,tp,128,all-equal,554-554,5,5,4,5,5,4,391,0.883995703544576,288,334.2,908,1365.2,120,102,TRUE
s003,tp_15,tp,129,all-equal,515-515,5,1,5,5,1,5,-306,0.135338345864662,253,334.2,1032,1365.2,120,102,TRUE
s003,tp_15,tp,130,two-small,354-255,3,5,4,2,5,5,243,0.725026852846402,276,334.2,863,1365.2,120,102,TRUE
s003,tp_15,tp,131,all-different,111-222,1,1,1,2,2,2,65,0.533834586466166,230,334.2,976,1365.2,120,102,TRUE
s003,tp_15,tp,132,two-large,215-251,2,1,5,2,5,1,,,283,334.2,,1365.2,120,102,TRUE
s003,tp_15,tp,133,one-large,541-545,5,4,1,5,4,5,302,0.788399570354458,243,334.2,825,1365.2,120,102,TRUE
s003,tp_15,tp,134,two-large,154-514,1,5,4,5,1,4,-160,0.292158968850698,192,334.2,1040,1365.2,120,102,TRUE
s003,tp_15,no_tp,135,two-small,341-431,3,4,1,4,3,1,98,0.569280343716434,3353,334.2,1218,1365.2,120,102,TRUE
s003,tp_15,no_tp,136,all-small,322-431,3,2,2,4,3,1,33,0.499462943071966,2346,334.2,1023,1365.2,120,102,TRUE
s003,tp_15,no_tp,137,two-large,215-251,2,1,5,2,5,1,-248,0.197636949516649,2001,334.2,899,1365.2,120,102,TRUE
s003,tp_15,no_tp,138,one-large,315-355,3,1,5,3,5,5,323,0.810955961331901,2180,334.2,916,1365.2,120,102,TRUE
s003,tp_15,no_tp,139,two-large,154-514,1,5,4,5,1,4,-149,0.303974221267454,1628,334.2,881,1365.2,120,102,TRUE
s003,tp_15,no_tp,140,one-large,153-553,1,5,3,5,5,3,-171,0.280343716433942,1835,334.2,1561,1365.2,120,102,TRUE
s003,tp_15,no_tp,141,two-large,145-541,1,4,5,5,4,1,-193,0.25671321160043,2048,334.2,1076,1365.2,120,102,TRUE
s003,tp_15,no_tp,142,one-large,541-545,5,4,1,5,4,5,220,0.700322234156821,2195,334.2,1394,1365.2,120,102,TRUE
s003,tp_15,no_tp,143,all-small,222-133,2,2,2,1,3,3,-98,0.35875402792696,2205,334.2,904,1365.2,120,102,TRUE
s003,tp_15,no_tp,144,two-small,244-235,2,4,4,2,3,5,-162,0.290010741138561,1540,334.2,1107,1365.2,120,102,TRUE
s003,tp_15,no_tp,145,all-small,433-324,4,3,3,3,2,4,-72,0.386680988184748,1778,334.2,848,1365.2,120,102,TRUE
s003,tp_15,no_tp,146,two-small,354-255,3,5,4,2,5,5,487,0.987110633727175,1112,334.2,1543,1365.2,120,102,TRUE
s003,tp_15,no_tp,147,one-large,315-355,3,1,5,3,5,5,108,0.580021482277121,1996,334.2,1053,1365.2,120,102,TRUE
s003,tp_15,no_tp,148,all-different,555-444,5,5,5,4,4,4,335,0.823845327604726,3135,334.2,1144,1365.2,120,102,TRUE
s003,tp_15,no_tp,149,all-different,555-222,5,5,5,2,2,2,-99,0.357679914070892,1660,334.2,1820,1365.2,120,102,TRUE
s003,tp_15,no_tp,150,all-equal,351-351,3,5,1,3,5,1,493,0.993555316863588,2287,334.2,1346,1365.2,120,102,TRUE
s003,tp_15,no_tp,151,all-equal,554-554,5,5,4,5,5,4,499,1,2113,334.2,1352,1365.2,120,102,TRUE
s003,tp_15,no_tp,152,one-large,541-545,5,4,1,5,4,5,315,0.802363050483351,2448,334.2,1010,1365.2,120,102,TRUE
s003,tp_15,no_tp,153,all-equal,214-214,2,1,4,2,1,4,496,0.996777658431794,630,334.2,1023,1365.2,120,102,TRUE
s003,tp_15,no_tp,154,all-small,222-133,2,2,2,1,3,3,157,0.63265306122449,2064,334.2,859,1365.2,120,102,TRUE
s003,tp_15,no_tp,155,all-different,111-444,1,1,1,4,4,4,37,0.503759398496241,1410,334.2,1999,1365.2,120,102,TRUE
s003,tp_15,no_tp,156,all-small,433-324,4,3,3,3,2,4,-89,0.368421052631579,2306,334.2,1729,1365.2,120,102,TRUE
s003,tp_15,no_tp,157,two-small,341-431,3,4,1,4,3,1,454,0.951664876476907,2003,334.2,1052,1365.2,120,102,TRUE
s003,tp_15,no_tp,158,two-small,244-235,2,4,4,2,3,5,259,0.742212674543502,2050,334.2,1047,1365.2,120,102,TRUE
s003,tp_15,no_tp,159,two-large,215-251,2,1,5,2,5,1,-185,0.26530612244898,1207,334.2,1617,1365.2,120,102,TRUE
s003,tp_15,no_tp,160,all-different,111-222,1,1,1,2,2,2,345,0.834586466165414,1463,334.2,1971,1365.2,120,102,TRUE
s003,tp_15,no_tp,161,one-large,153-553,1,5,3,5,5,3,267,0.750805585392052,1623,334.2,1538,1365.2,120,102,TRUE
s003,tp_15,no_tp,162,two-large,154-514,1,5,4,5,1,4,186,0.663802363050483,2038,334.2,1233,1365.2,120,102,TRUE
s003,tp_15,no_tp,163,all-small,322-431,3,2,2,4,3,1,-114,0.34156820622986,1901,334.2,855,1365.2,120,102,TRUE
s003,tp_15,no_tp,164,two-small,354-255,3,5,4,2,5,5,430,0.925886143931257,1178,334.2,1544,1365.2,120,102,TRUE
s003,tp_15,no_tp,165,all-different,111-555,1,1,1,5,5,5,271,0.755102040816326,1490,334.2,953,1365.2,120,102,TRUE
s003,tp_15,no_tp,166,all-equal,515-515,5,1,5,5,1,5,492,0.992481203007519,1497,334.2,1783,1365.2,120,102,TRUE
s003,tp_15,no_tp,167,two-large,145-541,1,4,5,5,4,1,136,0.610096670247046,2017,334.2,955,1365.2,120,102,TRUE
s003,tp_15,no_tp,168,two-small,354-255,3,5,4,2,5,5,71,0.540279269602578,2590,334.2,905,1365.2,120,102,TRUE
s003,tp_15,no_tp,169,one-large,541-545,5,4,1,5,4,5,-60,0.399570354457572,1134,334.2,841,1365.2,120,102,TRUE
s003,tp_15,no_tp,170,two-large,215-251,2,1,5,2,5,1,-218,0.229860365198711,1369,334.2,671,1365.2,120,102,TRUE
s003,tp_15,no_tp,171,two-small,341-431,3,4,1,4,3,1,-128,0.326530612244898,954,334.2,670,1365.2,120,102,TRUE
s003,tp_15,no_tp,172,one-large,315-355,3,1,5,3,5,5,76,0.545649838882922,882,334.2,1311,1365.2,120,102,TRUE
s003,tp_15,no_tp,173,two-large,154-514,1,5,4,5,1,4,-60,0.399570354457572,1026,334.2,871,1365.2,120,102,TRUE
s003,tp_15,no_tp,174,all-small,322-431,3,2,2,4,3,1,-176,0.274973147153598,1350,334.2,1006,1365.2,120,102,TRUE
s003,tp_15,no_tp,175,two-small,244-235,2,4,4,2,3,5,-228,0.219119226638024,2600,334.2,814,1365.2,120,102,TRUE
s003,tp_15,no_tp,176,two-large,145-541,1,4,5,5,4,1,-255,0.190118152524168,1273,334.2,1148,1365.2,120,102,TRUE
s003,tp_15,no_tp,177,all-small,222-133,2,2,2,1,3,3,-359,0.0784103114930183,1785,334.2,1100,1365.2,120,102,TRUE
s003,tp_15,no_tp,178,one-large,153-553,1,5,3,5,5,3,191,0.669172932330827,2088,334.2,814,1365.2,120,102,TRUE
s003,tp_15,no_tp,179,all-small,433-324,4,3,3,3,2,4,-222,0.225563909774436,1878,334.2,1700,1365.2,120,102,TRUE
s003,tp_15,no_tp,180,one-large,315-355,3,1,5,3,5,5,367,0.858216970998926,1549,334.2,1042,1365.2,120,102,TRUE
s003,tp_15,no_tp,181,two-small,354-255,3,5,4,2,5,5,398,0.891514500537057,1449,334.2,1272,1365.2,120,102,TRUE
s003,tp_15,no_tp,182,two-small,244-235,2,4,4,2,3,5,277,0.761546723952739,2401,334.2,858,1365.2,120,102,TRUE
s003,tp_15,no_tp,183,all-different,111-555,1,1,1,5,5,5,243,0.725026852846402,1797,334.2,866,1365.2,120,102,TRUE
s003,tp_15,no_tp,184,two-large,215-251,2,1,5,2,5,1,253,0.735767991407089,1687,334.2,1576,1365.2,120,102,TRUE
s003,tp_15,no_tp,185,all-small,322-431,3,2,2,4,3,1,29,0.495166487647691,1972,334.2,1293,1365.2,120,102,TRUE
s003,tp_15,no_tp,186,two-small,341-431,3,4,1,4,3,1,317,0.804511278195489,1712,334.2,1054,1365.2,120,102,TRUE
s003,tp_15,no_tp,187,one-large,153-553,1,5,3,5,5,3,162,0.638023630504834,1954,334.2,942,1365.2,120,102,TRUE
s003,tp_15,no_tp,188,all-small,433-324,4,3,3,3,2,4,230,0.711063372717508,1049,334.2,711,1365.2,120,102,TRUE
s003,tp_15,no_tp,189,all-equal,351-351,3,5,1,3,5,1,498,0.998925886143931,1510,334.2,2525,1365.2,120,102,TRUE
s003,tp_15,no_tp,190,one-large,541-545,5,4,1,5,4,5,202,0.680988184747583,1642,334.2,534,1365.2,120,102,TRUE
s003,tp_15,no_tp,191,all-different,111-444,1,1,1,4,4,4,98,0.569280343716434,951,334.2,796,1365.2,120,102,TRUE
s003,tp_15,no_tp,192,all-different,111-222,1,1,1,2,2,2,314,0.801288936627283,794,334.2,1169,1365.2,120,102,TRUE
s003,tp_15,no_tp,193,all-equal,554-554,5,5,4,5,5,4,499,1,1549,334.2,1677,1365.2,120,102,TRUE
s003,tp_15,no_tp,194,all-small,222-133,2,2,2,1,3,3,286,0.771213748657358,1127,334.2,899,1365.2,120,102,TRUE
s003,tp_15,no_tp,195,all-equal,515-515,5,1,5,5,1,5,497,0.997851772287862,1368,334.2,1127,1365.2,120,102,TRUE
s003,tp_15,no_tp,196,all-different,555-222,5,5,5,2,2,2,155,0.630504833512352,632,334.2,1173,1365.2,120,102,TRUE
s003,tp_15,no_tp,197,all-different,555-444,5,5,5,4,4,4,284,0.76906552094522,1540,334.2,1461,1365.2,120,102,TRUE
s003,tp_15,no_tp,198,all-equal,214-214,2,1,4,2,1,4,489,0.989258861439312,1237,334.2,1601,1365.2,120,102,TRUE
s003,tp_15,no_tp,199,two-large,145-541,1,4,5,5,4,1,-81,0.377013963480129,2226,334.2,808,1365.2,120,102,TRUE
s003,tp_15,no_tp,200,two-large,154-514,1,5,4,5,1,4,-169,0.282491944146079,702,334.2,803,1365.2,120,102,TRUE
s004,tp_15,no_tp,1,familiarization,432-432,4,3,2,4,3,2,499,1,4555,,2103,,201,102,FALSE
s004,tp_15,no_tp,2,familiarization,343-511,3,4,3,5,1,1,-405,0.0632124352331606,9665,,2179,,201,102,FALSE
s004,tp_15,no_tp,3,familiarization,332-343,3,3,2,3,4,3,356,0.851813471502591,4223,,1532,,201,102,FALSE
s004,tp_15,no_tp,4,familiarization,431-522,4,3,1,5,2,2,-183,0.293264248704663,2959,,2657,,201,102,FALSE
s004,tp_15,no_tp,5,familiarization,411-413,4,1,1,4,1,3,216,0.706735751295337,3471,,1179,,201,102,FALSE
s004,tp_15,no_tp,6,familiarization,114-314,1,1,4,3,1,4,280,0.773056994818653,3644,,987,,201,102,FALSE
s004,tp_15,no_tp,7,familiarization,535-133,5,3,5,1,3,3,-278,0.194818652849741,2885,,2587,,201,102,FALSE
s004,tp_15,no_tp,8,familiarization,534-534,5,3,4,5,3,4,496,0.996891191709845,3415,,1469,,201,102,FALSE
s004,tp_15,no_tp,9,familiarization,144-345,1,4,4,3,4,5,-98,0.381347150259067,3956,,1313,,201,102,FALSE
s004,tp_15,no_tp,10,familiarization,331-541,3,3,1,5,4,1,151,0.639378238341969,4158,,1568,,201,102,FALSE
s004,tp_15,no_tp,11,familiarization,151-321,1,5,1,3,2,1,-252,0.221761658031088,3570,,1818,,201,102,FALSE
s004,tp_15,no_tp,12,familiarization,412-412,4,1,2,4,1,2,,,3526,,3000,,201,102,FALSE
s004,tp_15,no_tp,13,familiarization,122-232,1,2,2,2,3,2,362,0.858031088082902,4625,,1050,,201,102,FALSE
s004,tp_15,no_tp,14,familiarization,345-341,3,4,5,3,4,1,-51,0.430051813471503,2770,,979,,201,102,FALSE
s004,tp_15,no_tp,15,familiarization,554-544,5,5,4,5,4,4,457,0.956476683937824,3299,,1775,,201,102,FALSE
s004,tp_15,no_tp,16,familiarization,335-443,3,3,5,4,4,3,-52,0.429015544041451,2686,,1547,,201,102,FALSE
s004,tp_15,no_tp,17,familiarization,551-541,5,5,1,5,4,1,477,0.97720207253886,3179,,1584,,201,102,FALSE
s004,tp_15,no_tp,18,familiarization,124-431,1,2,4,4,3,1,-397,0.0715025906735751,2426,,1189,,201,102,FALSE
s004,tp_15,no_tp,19,familiarization,435-232,4,3,5,2,3,2,-281,0.191709844559585,3142,,952,,201,102,FALSE
s004,tp_15,no_tp,20,familiarization,234-334,2,3,4,3,3,4,421,0.919170984455959,2583,,977,,201,102,FALSE
s004,tp_15,no_tp,21,familiarization,143-154,1,4,3,1,5,4,348,0.843523316062176,3523,,1809,,201,102,FALSE
s004,tp_15,no_tp,22,familiarization,523-234,5,2,3,2,3,4,-154,0.323316062176166,3073,,1259,,201,102,FALSE
s004,tp_15,no_tp,23,familiarization,151-311,1,5,1,3,1,1,-392,0.0766839378238342,4392,,1114,,201,102,FALSE
s004,tp_15,no_tp,24,familiarization,553-244,5,5,3,2,4,4,-357,0.112953367875648,2766,,1047,,201,102,FALSE
s004,tp_15,no_tp,25,familiarization,225-311,2,2,5,3,1,1,-294,0.178238341968912,2822,,984,,201,102,FALSE
s004,tp_15,no_tp,26,familiarization,511-511,5,1,1,5,1,1,486,0.986528497409326,2379,,1165,,201,102,FALSE
s004,tp_15,no_tp,27,familiarization,334-354,3,3,4,3,5,4,297,0.790673575129534,4971,,1508,,201,102,FALSE
s004,tp_15,no_tp,28,familiarization,415-244,4,1,5,2,4,4,-180,0.296373056994819,2635,,1025,,201,102,FALSE
s004,tp_15,no_tp,29,familiarization,525-454,5,2,5,4,5,4,-203,0.272538860103627,4216,,1492,,201,102,FALSE
s004,tp_15,no_tp,30,familiarization,213-155,2,1,3,1,5,5,-379,0.0901554404145078,2059,,1579,,201,102,FALSE
s004,tp_15,no_tp,31,familiarization,423-523,4,2,3,5,2,3,246,0.737823834196891,3293,,1171,,201,102,FALSE
s004,tp_15,no_tp,32,familiarization,515-514,5,1,5,5,1,4,422,0.92020725388601,2271,,1090,,201,102,FALSE
s004,tp_15,no_tp,33,familiarization,122-322,1,2,2,3,2,2,147,0.635233160621762,2784,,1327,,201,102,FALSE
s004,tp_15,no_tp,34,familiarization,114-411,1,1,4,4,1,1,-60,0.420725388601036,2419,,1184,,201,102,FALSE
s004,tp_15,no_tp,35,all-different,444-555,4,4,4,5,5,5,440,0.938860103626943,6064,417.6,1698,1550.6,201,102,FALSE
s004,tp_15,no_tp,36,all-equal,152-152,1,5,2,1,5,2,487,0.987564766839378,5962,417.6,1550,1550.6,201,102,FALSE
s004,tp_15,no_tp,37,one-large,255-251,2,5,5,2,5,1,14,0.497409326424871,2670,417.6,895,1550.6,201,102,FALSE
s004,tp_15,no_tp,38,all-different,444-111,4,4,4,1,1,1,-444,0.0227979274611399,1995,417.6,759,1550.6,201,102,FALSE
s004,tp_15,no_tp,39,all-equal,224-224,2,2,4,2,2,4,489,0.989637305699482,2115,417.6,2357,1550.6,201,102,FALSE
s004,tp_15,no_tp,40,all-different,222-111,2,2,2,1,1,1,345,0.840414507772021,1946,417.6,1000,1550.6,201,102,FALSE
s004,tp_15,no_tp,41,one-large,552-512,5,5,2,5,1,2,-133,0.345077720207254,3348,417.6,1248,1550.6,201,102,FALSE
s004,tp_15,no_tp,42,two-small,414-324,4,1,4,3,2,4,-227,0.247668393782383,5227,417.6,1117,1550.6,201,102,FALSE
s004,tp_15,no_tp,43,all-equal,214-214,2,1,4,2,1,4,492,0.992746113989637,2095,417.6,2684,1550.6,201,102,FALSE
s004,tp_15,no_tp,44,all-equal,113-113,1,1,3,1,1,3,495,0.995854922279793,2835,417.6,1197,1550.6,201,102,FALSE
s004,tp_15,no_tp,45,all-small,115-224,1,1,5,2,2,4,348,0.843523316062176,4857,417.6,910,1550.6,201,102,FALSE
s004,tp_15,no_tp,46,all-small,533-424,5,3,3,4,2,4,70,0.555440414507772,3403,417.6,858,1550.6,201,102,FALSE
s004,tp_15,no_tp,47,one-large,121-521,1,2,1,5,2,1,-341,0.129533678756477,1939,417.6,1214,1550.6,201,102,FALSE
s004,tp_15,no_tp,48,two-large,513-153,5,1,3,1,5,3,-352,0.118134715025907,2952,417.6,1172,1550.6,201,102,FALSE
s004,tp_15,no_tp,49,all-different,555-111,5,5,5,1,1,1,76,0.561658031088083,2429,417.6,1482,1550.6,201,102,FALSE
s004,tp_15,no_tp,50,two-small,441-342,4,4,1,3,4,2,-93,0.386528497409326,3936,417.6,1250,1550.6,201,102,FALSE
s004,tp_15,no_tp,51,all-different,222-555,2,2,2,5,5,5,47,0.53160621761658,2375,417.6,1017,1550.6,201,102,FALSE
s004,tp_15,no_tp,52,two-large,135-531,1,3,5,5,3,1,-438,0.0290155440414508,2723,417.6,1029,1550.6,201,102,FALSE
s004,tp_15,no_tp,53,all-small,224-333,2,2,4,3,3,3,-306,0.16580310880829,4941,417.6,1164,1550.6,201,102,FALSE
s004,tp_15,no_tp,54,two-large,315-351,3,1,5,3,5,1,-429,0.0383419689119171,2022,417.6,973,1550.6,201,102,FALSE
s004,tp_15,no_tp,55,two-small,224-233,2,2,4,2,3,3,-384,0.0849740932642487,2698,417.6,829,1550.6,201,102,FALSE
s004,tp_15,no_tp,56,two-small,441-342,4,4,1,3,4,2,-356,0.113989637305699,4249,417.6,1832,1550.6,201,102,FALSE
s004,tp_15,no_tp,57,two-large,513-153,5,1,3,1,5,3,-1,0.481865284974093,2281,417.6,1725,1550.6,201,102,FALSE
s004,tp_15,no_tp,58,all-small,115-224,1,1,5,2,2,4,97,0.583419689119171,2460,417.6,838,1550.6,201,102,FALSE
s004,tp_15,no_tp,59,two-large,315-351,3,1,5,3,5,1,-422,0.0455958549222798,3500,417.6,1397,1550.6,201,102,FALSE
s004,tp_15,no_tp,60,two-large,135-531,1,3,5,5,3,1,-404,0.0642487046632124,5321,417.6,989,1550.6,201,102,FALSE
s004,tp_15,no_tp,61,all-small,533-424,5,3,3,4,2,4,-214,0.261139896373057,3387,417.6,1303,1550.6,201,102,FALSE
s004,tp_15,no_tp,62,two-small,414-324,4,1,4,3,2,4,-304,0.167875647668394,3432,417.6,827,1550.6,201,102,FALSE
s004,tp_15,no_tp,63,one-large,255-251,2,5,5,2,5,1,-350,0.12020725388601,5109,417.6,1476,1550.6,201,102,FALSE
s004,tp_15,no_tp,64,one-large,552-512,5,5,2,5,1,2,-348,0.122279792746114,4384,417.6,987,1550.6,201,102,FALSE
s004,tp_15,no_tp,65,two-small,224-233,2,2,4,2,3,3,252,0.744041450777202,2818,417.6,1807,1550.6,201,102,FALSE
s004,tp_15,no_tp,66,all-small,224-333,2,2,4,3,3,3,-127,0.351295336787565,5082,417.6,1295,1550.6,201,102,FALSE
s004,tp_15,no_tp,67,one-large,121-521,1,2,1,5,2,1,-466,0,2586,417.6,1187,1550.6,201,102,FALSE
s004,tp_15,no_tp,68,all-small,115-224,1,1,5,2,2,4,37,0.521243523316062,3819,417.6,924,1550.6,201,102,FALSE
s004,tp_15,no_tp,69,one-large,255-251,2,5,5,2,5,1,-277,0.195854922279793,3371,417.6,915,1550.6,201,102,FALSE
s004,tp_15,no_tp,70,all-different,444-111,4,4,4,1,1,1,209,0.699481865284974,2484,417.6,1115,1550.6,201,102,FALSE
s004,tp_15,no_tp,71,two-small,414-324,4,1,4,3,2,4,-254,0.219689119170984,2131,417.6,879,1550.6,201,102,FALSE
s004,tp_15,no_tp,72,one-large,552-512,5,5,2,5,1,2,-52,0.429015544041451,3191,417.6,1078,1550.6,201,102,FALSE
s004,tp_15,no_tp,73,two-small,441-342,4,4,1,3,4,2,-276,0.196891191709845,4201,417.6,928,1550.6,201,102,FALSE
s004,tp_15,no_tp,74,two-large,315-351,3,1,5,3,5,1,-405,0.0632124352331606,1944,417.6,861,1550.6,201,102,FALSE
s004,tp_15,no_tp,75,all-different,222-111,2,2,2,1,1,1,205,0.695336787564767,1770,417.6,1013,1550.6,201,102,FALSE
s004,tp_15,no_tp,76,all-small,224-333,2,2,4,3,3,3,-346,0.124352331606218,4317,417.6,864,1550.6,201,102,FALSE
s004,tp_15,no_tp,77,two-large,513-153,5,1,3,1,5,3,-7,0.475647668393782,1907,417.6,803,1550.6,201,102,FALSE
s004,tp_15,no_tp,78,two-large,135-531,1,3,5,5,3,1,-37,0.444559585492228,2279,417.6,972,1550.6,201,102,FALSE
s004,tp_15,no_tp,79,all-different,222-555,2,2,2,5,5,5,234,0.725388601036269,2453,417.6,768,1550.6,201,102,FALSE
s004,tp_15,no_tp,80,all-equal,113-113,1,1,3,1,1,3,494,0.994818652849741,2207,417.6,2681,1550.6,201,102,FALSE
s004,tp_15,no_tp,81,all-different,444-555,4,4,4,5,5,5,373,0.869430051813472,2709,417.6,826,1550.6,201,102,FALSE
s004,tp_15,no_tp,82,two-small,224-233,2,2,4,2,3,3,362,0.858031088082902,3634,417.6,970,1550.6,201,102,FALSE
s004,tp_15,no_tp,83,all-different,555-111,5,5,5,1,1,1,258,0.750259067357513,1577,417.6,754,1550.6,201,102,FALSE
s004,tp_15,no_tp,84,all-equal,152-152,1,5,2,1,5,2,494,0.994818652849741,2300,417.6,1240,1550.6,201,102,FALSE
s004,tp_15,no_tp,85,all-equal,214-214,2,1,4,2,1,4,494,0.994818652849741,2843,417.6,1325,1550.6,201,102,FALSE
s004,tp_15,no_tp,86,one-large,121-521,1,2,1,5,2,1,-14,0.46839378238342,2586,417.6,919,1550.6,201,102,FALSE
s004,tp_15,no_tp,87,all-equal,224-224,2,2,4,2,2,4,493,0.993782383419689,2141,417.6,1083,1550.6,201,102,FALSE
s004,tp_15,no_tp,88,all-small,533-424,5,3,3,4,2,4,73,0.558549222797928,3595,417.6,900,1550.6,201,102,FALSE
s004,tp_15,no_tp,89,two-large,315-351,3,1,5,3,5,1,-56,0.424870466321244,1972,417.6,782,1550.6,201,102,FALSE
s004,tp_15,no_tp,90,two-large,135-531,1,3,5,5,3,1,-119,0.359585492227979,1733,417.6,907,1550.6,201,102,FALSE
s004,tp_15,no_tp,91,all-small,115-224,1,1,5,2,2,4,-186,0.290155440414508,2613,417.6,816,1550.6,201,102,FALSE
s004,tp_15,no_tp,92,two-small,414-324,4,1,4,3,2,4,-152,0.325388601036269,5004,417.6,854,1550.6,201,102,FALSE
s004,tp_15,no_tp,93,one-large,552-512,5,5,2,5,1,2,-279,0.193782383419689,3953,417.6,601,1550.6,201,102,FALSE
s004,tp_15,no_tp,94,two-large,513-153,5,1,3,1,5,3,6,0.489119170984456,2818,417.6,921,1550.6,201,102,FALSE
s004,tp_15,no_tp,95,all-small,533-424,5,3,3,4,2,4,158,0.646632124352332,2645,417.6,879,1550.6,201,102,FALSE
s004,tp_15,no_tp,96,one-large,121-521,1,2,1,5,2,1,-321,0.150259067357513,1985,417.6,1293,1550.6,201,102,FALSE
s004,tp_15,no_tp,97,two-small,224-233,2,2,4,2,3,3,39,0.523316062176166,2743,417.6,803,1550.6,201,102,FALSE
s004,tp_15,no_tp,98,all-small,224-333,2,2,4,3,3,3,16,0.499481865284974,2349,417.6,838,1550.6,201,102,FALSE
s004,tp_15,no_tp,99,one-large,255-251,2,5,5,2,5,1,-21,0.461139896373057,1772,417.6,788,1550.6,201,102,FALSE
s004,tp_15,no_tp,100,two-small,441-342,4,4,1,3,4,2,-146,0.33160621761658,3168,417.6,949,1550.6,201,102,FALSE
s004,tp_15,tp,101,familiarization,432-432,4,3,2,4,3,2,,,,417.6,,1550.6,201,102,FALSE
s004,tp_15,tp,102,familiarization,343-511,3,4,3,5,1,1,,,,417.6,,1550.6,201,102,FALSE
s004,tp_15,tp,103,familiarization,332-343,3,3,2,3,4,3,,,,417.6,,1550.6,201,102,FALSE
s004,tp_15,tp,104,familiarization,431-522,4,3,1,5,2,2,-11,0.471502590673575,181,417.6,1288,1550.6,201,102,FALSE
s004,tp_15,tp,105,familiarization,411-413,4,1,1,4,1,3,,,,417.6,,1550.6,201,102,FALSE
s004,tp_15,tp,106,familiarization,114-314,1,1,4,3,1,4,,,,417.6,,1550.6,201,102,FALSE
s004,tp_15,tp,107,familiarization,535-133,5,3,5,1,3,3,,,323,417.6,,1550.6,201,102,FALSE
s004,tp_15,tp,108,familiarization,534-534,5,3,4,5,3,4,,,,417.6,,1550.6,201,102,FALSE
s004,tp_15,tp,109,familiarization,144-345,1,4,4,3,4,5,104,0.590673575129534,310,417.6,1021,1550.6,201,102,FALSE
s004,tp_15,tp,110,familiarization,331-541,3,3,1,5,4,1,,,,417.6,,1550.6,201,102,FALSE
s004,tp_15,tp,111,familiarization,151-321,1,5,1,3,2,1,,,,417.6,,1550.6,201,102,FALSE
s004,tp_15,tp,112,familiarization,412-412,4,1,2,4,1,2,-246,0.227979274611399,398,417.6,1144,1550.6,201,102,FALSE
s004,tp_15,tp,113,familiarization,122-232,1,2,2,2,3,2,,,,417.6,,1550.6,201,102,FALSE
s004,tp_15,tp,114,familiarization,345-341,3,4,5,3,4,1,,,,417.6,,1550.6,201,102,FALSE
s004,tp_15,tp,115,familiarization,554-544,5,5,4,5,4,4,258,0.750259067357513,415,417.6,957,1550.6,201,102,FALSE
s004,tp_15,tp,116,familiarization,335-443,3,3,5,4,4,3,,,,417.6,,1550.6,201,102,FALSE
s004,tp_15,tp,117,familiarization,551-541,5,5,1,5,4,1,,,,417.6,,1550.6,201,102,FALSE
s004,tp_15,tp,118,familiarization,124-431,1,2,4,4,3,1,110,0.596891191709845,223,417.6,809,1550.6,201,102,FALSE
s004,tp_15,tp,119,familiarization,435-232,4,3,5,2,3,2,172,0.661139896373057,192,417.6,1250,1550.6,201,102,FALSE
s004,tp_15,tp,120,familiarization,234-334,2,3,4,3,3,4,-141,0.336787564766839,299,417.6,1324,1550.6,201,102,FALSE
s004,tp_15,tp,121,familiarization,143-154,1,4,3,1,5,4,31,0.515025906735751,219,417.6,1302,1550.6,201,102,FALSE
s004,tp_15,tp,122,familiarization,523-234,5,2,3,2,3,4,-272,0.201036269430052,237,417.6,1299,1550.6,201,102,FALSE
s004,tp_15,tp,123,familiarization,151-311,1,5,1,3,1,1,-185,0.29119170984456,211,417.6,1064,1550.6,201,102,FALSE
s004,tp_15,tp,124,familiarization,553-244,5,5,3,2,4,4,-368,0.101554404145078,215,417.6,1325,1550.6,201,102,FALSE
s004,tp_15,tp,125,familiarization,225-311,2,2,5,3,1,1,104,0.590673575129534,368,417.6,1011,1550.6,201,102,FALSE
s004,tp_15,tp,126,familiarization,511-511,5,1,1,5,1,1,-322,0.149222797927461,246,417.6,1020,1550.6,201,102,FALSE
s004,tp_15,tp,127,familiarization,334-354,3,3,4,3,5,4,179,0.66839378238342,260,417.6,1125,1550.6,201,102,FALSE
s004,tp_15,tp,128,familiarization,415-244,4,1,5,2,4,4,-79,0.401036269430052,308,417.6,912,1550.6,201,102,FALSE
s004,tp_15,tp,129,familiarization,525-454,5,2,5,4,5,4,-214,0.261139896373057,299,417.6,950,1550.6,201,102,FALSE
s004,tp_15,tp,130,familiarization,213-155,2,1,3,1,5,5,-306,0.16580310880829,338,417.6,790,1550.6,201,102,FALSE
s004,tp_15,tp,131,familiarization,423-523,4,2,3,5,2,3,-61,0.419689119170984,299,417.6,986,1550.6,201,102,FALSE
s004,tp_15,tp,132,familiarization,515-514,5,1,5,5,1,4,,,315,417.6,,1550.6,201,102,FALSE
s004,tp_15,tp,133,familiarization,122-322,1,2,2,3,2,2,,,,417.6,,1550.6,201,102,FALSE
s004,tp_15,tp,134,familiarization,114-411,1,1,4,4,1,1,,,,417.6,,1550.6,201,102,FALSE
s004,tp_15,tp,135,one-large,255-251,2,5,5,2,5,1,,,,417.6,,1550.6,201,102,FALSE
s004,tp_15,tp,136,two-small,224-233,2,2,4,2,3,3,254,0.746113989637306,224,417.6,977,1550.6,201,102,FALSE
s004,tp_15,tp,137,one-large,552-512,5,5,2,5,1,2,-115,0.363730569948187,195,417.6,1022,1550.6,201,102,FALSE
s004,tp_15,tp,138,all-different,444-111,4,4,4,1,1,1,203,0.693264248704663,220,417.6,1142,1550.6,201,102,FALSE
s004,tp_15,tp,139,two-small,414-324,4,1,4,3,2,4,-102,0.37720207253886,263,417.6,923,1550.6,201,102,FALSE
s004,tp_15,tp,140,all-equal,214-214,2,1,4,2,1,4,478,0.978238341968912,249,417.6,1012,1550.6,201,102,FALSE
s004,tp_15,tp,141,all-equal,224-224,2,2,4,2,2,4,495,0.995854922279793,377,417.6,1486,1550.6,201,102,FALSE
s004,tp_15,tp,142,two-large,513-153,5,1,3,1,5,3,-94,0.385492227979275,398,417.6,727,1550.6,201,102,FALSE
s004,tp_15,tp,143,all-different,222-111,2,2,2,1,1,1,43,0.527461139896373,273,417.6,841,1550.6,201,102,FALSE
s004,tp_15,tp,144,all-different,555-111,5,5,5,1,1,1,-167,0.309844559585492,293,417.6,1026,1550.6,201,102,FALSE
s004,tp_15,tp,145,all-small,533-424,5,3,3,4,2,4,-255,0.218652849740933,327,417.6,810,1550.6,201,102,FALSE
s004,tp_15,tp,146,all-different,222-555,2,2,2,5,5,5,-317,0.15440414507772,241,417.6,873,1550.6,201,102,FALSE
s004,tp_15,tp,147,all-small,115-224,1,1,5,2,2,4,63,0.548186528497409,273,417.6,858,1550.6,201,102,FALSE
s004,tp_15,tp,148,two-small,441-342,4,4,1,3,4,2,35,0.519170984455959,342,417.6,903,1550.6,201,102,FALSE
s004,tp_15,tp,149,one-large,121-521,1,2,1,5,2,1,-212,0.263212435233161,383,417.6,697,1550.6,201,102,FALSE
s004,tp_15,tp,150,all-equal,113-113,1,1,3,1,1,3,-88,0.391709844559586,318,417.6,784,1550.6,201,102,FALSE
s004,tp_15,tp,151,two-large,135-531,1,3,5,5,3,1,-32,0.449740932642487,336,417.6,725,1550.6,201,102,FALSE
s004,tp_15,tp,152,all-equal,152-152,1,5,2,1,5,2,,,,417.6,,1550.6,201,102,FALSE
s004,tp_15,tp,153,all-small,224-333,2,2,4,3,3,3,-56,0.424870466321244,241,417.6,710,1550.6,201,102,FALSE
s004,tp_15,tp,154,two-large,315-351,3,1,5,3,5,1,-27,0.454922279792746,348,417.6,748,1550.6,201,102,FALSE
s004,tp_15,tp,155,all-different,444-555,4,4,4,5,5,5,84,0.569948186528498,288,417.6,688,1550.6,201,102,FALSE
s004,tp_15,tp,156,two-small,414-324,4,1,4,3,2,4,-222,0.252849740932643,332,417.6,725,1550.6,201,102,FALSE
s004,tp_15,tp,157,one-large,121-521,1,2,1,5,2,1,-107,0.372020725388601,375,417.6,1025,1550.6,201,102,FALSE
s004,tp_15,tp,158,all-small,224-333,2,2,4,3,3,3,,,,417.6,,1550.6,201,102,FALSE
s004,tp_15,tp,159,all-small,533-424,5,3,3,4,2,4,66,0.551295336787565,306,417.6,793,1550.6,201,102,FALSE
s004,tp_15,tp,160,two-large,513-153,5,1,3,1,5,3,-51,0.430051813471503,291,417.6,758,1550.6,201,102,FALSE
s004,tp_15,tp,161,two-small,224-233,2,2,4,2,3,3,,,,417.6,,1550.6,201,102,FALSE
s004,tp_15,tp,162,all-small,115-224,1,1,5,2,2,4,158,0.646632124352332,412,417.6,1170,1550.6,201,102,FALSE
s004,tp_15,tp,163,one-large,552-512,5,5,2,5,1,2,,,,417.6,,1550.6,201,102,FALSE
s004,tp_15,tp,164,two-small,441-342,4,4,1,3,4,2,,,,417.6,,1550.6,201,102,FALSE
s004,tp_15,tp,165,two-large,135-531,1,3,5,5,3,1,-146,0.33160621761658,373,417.6,1100,1550.6,201,102,FALSE
s004,tp_15,tp,166,two-large,315-351,3,1,5,3,5,1,-53,0.427979274611399,285,417.6,753,1550.6,201,102,FALSE
s004,tp_15,tp,167,one-large,255-251,2,5,5,2,5,1,-307,0.164766839378238,349,417.6,651,1550.6,201,102,FALSE
s004,tp_15,tp,168,all-different,222-555,2,2,2,5,5,5,-140,0.337823834196891,291,417.6,806,1550.6,201,102,FALSE
s004,tp_15,tp,169,one-large,255-251,2,5,5,2,5,1,-360,0.109844559585492,299,417.6,787,1550.6,201,102,FALSE
s004,tp_15,tp,170,all-different,444-111,4,4,4,1,1,1,-35,0.446632124352332,395,417.6,794,1550.6,201,102,FALSE
s004,tp_15,tp,171,all-small,533-424,5,3,3,4,2,4,163,0.651813471502591,310,417.6,1013,1550.6,201,102,FALSE
s004,tp_15,tp,172,all-equal,113-113,1,1,3,1,1,3,155,0.643523316062176,347,417.6,949,1550.6,201,102,FALSE
s004,tp_15,tp,173,two-small,414-324,4,1,4,3,2,4,-34,0.447668393782383,414,417.6,817,1550.6,201,102,FALSE
s004,tp_15,tp,174,all-small,224-333,2,2,4,3,3,3,219,0.709844559585492,391,417.6,1002,1550.6,201,102,FALSE
s004,tp_15,tp,175,two-large,315-351,3,1,5,3,5,1,94,0.580310880829016,322,417.6,745,1550.6,201,102,FALSE
s004,tp_15,tp,176,two-large,135-531,1,3,5,5,3,1,-148,0.329533678756477,308,417.6,1018,1550.6,201,102,FALSE
s004,tp_15,tp,177,one-large,121-521,1,2,1,5,2,1,-370,0.0994818652849741,392,417.6,920,1550.6,201,102,FALSE
s004,tp_15,tp,178,two-small,224-233,2,2,4,2,3,3,-138,0.339896373056995,318,417.6,802,1550.6,201,102,FALSE
s004,tp_15,tp,179,all-different,444-555,4,4,4,5,5,5,184,0.673575129533679,269,417.6,928,1550.6,201,102,FALSE
s004,tp_15,tp,180,all-small,115-224,1,1,5,2,2,4,92,0.578238341968912,363,417.6,800,1550.6,201,102,FALSE
s004,tp_15,tp,181,two-large,513-153,5,1,3,1,5,3,-250,0.223834196891192,389,417.6,630,1550.6,201,102,FALSE
s004,tp_15,tp,182,all-equal,224-224,2,2,4,2,2,4,426,0.924352331606218,366,417.6,1095,1550.6,201,102,FALSE
s004,tp_15,tp,183,all-different,555-111,5,5,5,1,1,1,104,0.590673575129534,386,417.6,1171,1550.6,201,102,FALSE
s004,tp_15,tp,184,all-different,222-111,2,2,2,1,1,1,,,,417.6,,1550.6,201,102,FALSE
s004,tp_15,tp,185,all-equal,214-214,2,1,4,2,1,4,53,0.537823834196891,268,417.6,681,1550.6,201,102,FALSE
s004,tp_15,tp,186,two-small,441-342,4,4,1,3,4,2,,,,417.6,,1550.6,201,102,FALSE
s004,tp_15,tp,187,one-large,552-512,5,5,2,5,1,2,-113,0.36580310880829,204,417.6,838,1550.6,201,102,FALSE
s004,tp_15,tp,188,all-equal,152-152,1,5,2,1,5,2,-258,0.215544041450777,216,417.6,778,1550.6,201,102,FALSE
s004,tp_15,tp,189,two-small,441-342,4,4,1,3,4,2,36,0.52020725388601,392,417.6,768,1550.6,201,102,FALSE
s004,tp_15,tp,190,one-large,121-521,1,2,1,5,2,1,-172,0.304663212435233,381,417.6,1032,1550.6,201,102,FALSE
s004,tp_15,tp,191,one-large,255-251,2,5,5,2,5,1,-266,0.207253886010363,401,417.6,838,1550.6,201,102,FALSE
s004,tp_15,tp,192,two-small,224-233,2,2,4,2,3,3,78,0.563730569948187,353,417.6,782,1550.6,201,102,FALSE
s004,tp_15,tp,193,all-small,115-224,1,1,5,2,2,4,,,,417.6,,1550.6,201,102,FALSE
s004,tp_15,tp,194,two-large,135-531,1,3,5,5,3,1,,,,417.6,,1550.6,201,102,FALSE
s004,tp_15,tp,195,two-small,414-324,4,1,4,3,2,4,,,,417.6,,1550.6,201,102,FALSE
s004,tp_15,tp,196,all-small,533-424,5,3,3,4,2,4,-322,0.149222797927461,220,417.6,1037,1550.6,201,102,FALSE
s004,tp_15,tp,197,all-small,224-333,2,2,4,3,3,3,111,0.597927461139896,240,417.6,798,1550.6,201,102,FALSE
s004,tp_15,tp,198,one-large,552-512,5,5,2,5,1,2,-121,0.357512953367876,343,417.6,604,1550.6,201,102,FALSE
s004,tp_15,tp,199,two-large,315-351,3,1,5,3,5,1,,,,417.6,,1550.6,201,102,FALSE
s004,tp_15,tp,200,two-large,513-153,5,1,3,1,5,3,-206,0.269430051813472,224,417.6,929,1550.6,201,102,FALSE
s005,tp_15,no_tp,1,familiarization,154-242,1,5,4,2,4,2,,,4534,,3000,,120,201,TRUE
s005,tp_15,no_tp,2,familiarization,353-453,3,5,3,4,5,3,375,0.875626880641926,3293,,987,,120,201,TRUE
s005,tp_15,no_tp,3,familiarization,253-133,2,5,3,1,3,3,126,0.625877632898696,5526,,884,,120,201,TRUE
s005,tp_15,no_tp,4,familiarization,452-522,4,5,2,5,2,2,12,0.511534603811434,3195,,1098,,120,201,TRUE
s005,tp_15,no_tp,5,familiarization,122-142,1,2,2,1,4,2,249,0.749247743229689,7259,,814,,120,201,TRUE
s005,tp_15,no_tp,6,familiarization,213-332,2,1,3,3,3,2,-107,0.392176529588766,19298,,847,,120,201,TRUE
s005,tp_15,no_tp,7,familiarization,535-532,5,3,5,5,3,2,124,0.623871614844534,2759,,734,,120,201,TRUE
s005,tp_15,no_tp,8,familiarization,325-311,3,2,5,3,1,1,-220,0.278836509528586,299,,621,,120,201,TRUE
s005,tp_15,no_tp,9,familiarization,121-121,1,2,1,1,2,1,487,0.987963891675025,479,,883,,120,201,TRUE
s005,tp_15,no_tp,10,familiarization,523-213,5,2,3,2,1,3,39,0.538615847542628,2319,,621,,120,201,TRUE
s005,tp_15,no_tp,11,familiarization,144-241,1,4,4,2,4,1,-152,0.34704112337011,4673,,758,,120,201,TRUE
s005,tp_15,no_tp,12,familiarization,514-154,5,1,4,1,5,4,-49,0.450351053159478,4050,,631,,120,201,TRUE
s005,tp_15,no_tp,13,familiarization,553-253,5,5,3,2,5,3,254,0.754262788365095,5515,,729,,120,201,TRUE
s005,tp_15,no_tp,14,familiarization,221-231,2,2,1,2,3,1,295,0.795386158475426,3614,,824,,120,201,TRUE
s005,tp_15,no_tp,15,familiarization,514-535,5,1,4,5,3,5,96,0.595787362086259,2637,,672,,120,201,TRUE
s005,tp_15,no_tp,16,familiarization,352-313,3,5,2,3,1,3,-143,0.356068204613842,11649,,721,,120,201,TRUE
s005,tp_15,no_tp,17,familiarization,241-515,2,4,1,5,1,5,-321,0.17753259779338,1941,,633,,120,201,TRUE
s005,tp_15,no_tp,18,familiarization,225-511,2,2,5,5,1,1,-318,0.180541624874624,2990,,645,,120,201,TRUE
s005,tp_15,no_tp,19,familiarization,454-225,4,5,4,2,2,5,-198,0.300902708124373,6267,,696,,120,201,TRUE
s005,tp_15,no_tp,20,familiarization,441-431,4,4,1,4,3,1,203,0.703109327983952,17763,,813,,120,201,TRUE
s005,tp_15,no_tp,21,familiarization,331-334,3,3,1,3,3,4,41,0.54062186559679,2469,,652,,120,201,TRUE
s005,tp_15,no_tp,22,familiarization,543-544,5,4,3,5,4,4,279,0.779338014042126,2325,,700,,120,201,TRUE
s005,tp_15,no_tp,23,familiarization,434-345,4,3,4,3,4,5,195,0.695085255767302,3555,,704,,120,201,TRUE
s005,tp_15,no_tp,24,familiarization,442-432,4,4,2,4,3,2,217,0.717151454363089,2408,,693,,120,201,TRUE
s005,tp_15,no_tp,25,familiarization,421-243,4,2,1,2,4,3,-90,0.409227683049147,4543,,630,,120,201,TRUE
s005,tp_15,no_tp,26,familiarization,414-443,4,1,4,4,4,3,-43,0.456369107321966,2466,,677,,120,201,TRUE
s005,tp_15,no_tp,27,familiarization,242-242,2,4,2,2,4,2,495,0.995987963891675,2989,,1572,,120,201,TRUE
s005,tp_15,no_tp,28,familiarization,121-414,1,2,1,4,1,4,-295,0.203610832497492,3115,,643,,120,201,TRUE
s005,tp_15,no_tp,29,familiarization,341-331,3,4,1,3,3,1,270,0.770310932798395,2068,,793,,120,201,TRUE
s005,tp_15,no_tp,30,familiarization,244-532,2,4,4,5,3,2,-53,0.446339017051154,2575,,616,,120,201,TRUE
s005,tp_15,no_tp,31,familiarization,441-441,4,4,1,4,4,1,487,0.987963891675025,2101,,1210,,120,201,TRUE
s005,tp_15,no_tp,32,familiarization,123-142,1,2,3,1,4,2,-19,0.480441323971916,1967,,650,,120,201,TRUE
s005,tp_15,no_tp,33,familiarization,532-251,5,3,2,2,5,1,-222,0.276830491474423,2473,,659,,120,201,TRUE
s005,tp_15,no_tp,34,familiarization,251-251,2,5,1,2,5,1,495,0.995987963891675,2296,,1153,,120,201,TRUE
s005,tp_15,tp,35,familiarization,154-242,1,5,4,2,4,2,,,,370.35,,1187.2,120,201,TRUE
s005,tp_15,tp,36,familiarization,353-453,3,5,3,4,5,3,,,,370.35,,1187.2,120,201,TRUE
s005,tp_15,tp,37,familiarization,253-133,2,5,3,1,3,3,,,,370.35,,1187.2,120,201,TRUE
s005,tp_15,tp,38,familiarization,452-522,4,5,2,5,2,2,,,175,370.35,,1187.2,120,201,TRUE
s005,tp_15,tp,39,familiarization,122-142,1,2,2,1,4,2,,,,370.35,,1187.2,120,201,TRUE
s005,tp_15,tp,40,familiarization,213-332,2,1,3,3,3,2,48,0.547642928786359,185,370.35,516,1187.2,120,201,TRUE
s005,tp_15,tp,41,familiarization,535-532,5,3,5,5,3,2,,,,370.35,,1187.2,120,201,TRUE
s005,tp_15,tp,42,familiarization,325-311,3,2,5,3,1,1,-129,0.370110330992979,221,370.35,668,1187.2,120,201,TRUE
s005,tp_15,tp,43,familiarization,121-121,1,2,1,1,2,1,,,,370.35,,1187.2,120,201,TRUE
s005,tp_15,tp,44,familiarization,523-213,5,2,3,2,1,3,,,,370.35,,1187.2,120,201,TRUE
s005,tp_15,tp,45,familiarization,144-241,1,4,4,2,4,1,-142,0.357071213640923,218,370.35,776,1187.2,120,201,TRUE
s005,tp_15,tp,46,familiarization,514-154,5,1,4,1,5,4,166,0.665997993981946,233,370.35,805,1187.2,120,201,TRUE
s005,tp_15,tp,47,familiarization,553-253,5,5,3,2,5,3,,,,370.35,,1187.2,120,201,TRUE
s005,tp_15,tp,48,familiarization,221-231,2,2,1,2,3,1,,,262,370.35,,1187.2,120,201,TRUE
s005,tp_15,tp,49,familiarization,514-535,5,1,4,5,3,5,,,,370.35,,1187.2,120,201,TRUE
s005,tp_15,tp,50,familiarization,352-313,3,5,2,3,1,3,-208,0.290872617853561,204,370.35,688,1187.2,120,201,TRUE
s005,tp_15,tp,51,familiarization,241-515,2,4,1,5,1,5,,,,370.35,,1187.2,120,201,TRUE
s005,tp_15,tp,52,familiarization,225-511,2,2,5,5,1,1,,,,370.35,,1187.2,120,201,TRUE
s005,tp_15,tp,53,familiarization,454-225,4,5,4,2,2,5,-173,0.325977933801404,291,370.35,660,1187.2,120,201,TRUE
s005,tp_15,tp,54,familiarization,441-431,4,4,1,4,3,1,,,,370.35,,1187.2,120,201,TRUE
s005,tp_15,tp,55,familiarization,331-334,3,3,1,3,3,4,,,,370.35,,1187.2,120,201,TRUE
s005,tp_15,tp,56,familiarization,543-544,5,4,3,5,4,4,,,,370.35,,1187.2,120,201,TRUE
s005,tp_15,tp,57,familiarization,434-345,4,3,4,3,4,5,367,0.867602808425276,309,370.35,570,1187.2,120,201,TRUE
s005,tp_15,tp,58,familiarization,442-432,4,4,2,4,3,2,,,,370.35,,1187.2,120,201,TRUE
s005,tp_15,tp,59,familiarization,421-243,4,2,1,2,4,3,,,,370.35,,1187.2,120,201,TRUE
s005,tp_15,tp,60,familiarization,414-443,4,1,4,4,4,3,,,,370.35,,1187.2,120,201,TRUE
s005,tp_15,tp,61,familiarization,242-242,2,4,2,2,4,2,354,0.85456369107322,311,370.35,524,1187.2,120,201,TRUE
s005,tp_15,tp,62,familiarization,121-414,1,2,1,4,1,4,-225,0.27382146439318,267,370.35,887,1187.2,120,201,TRUE
s005,tp_15,tp,63,familiarization,341-331,3,4,1,3,3,1,332,0.832497492477432,357,370.35,617,1187.2,120,201,TRUE
s005,tp_15,tp,64,familiarization,244-532,2,4,4,5,3,2,,,,370.35,,1187.2,120,201,TRUE
s005,tp_15,tp,65,familiarization,441-441,4,4,1,4,4,1,306,0.80641925777332,316,370.35,789,1187.2,120,201,TRUE
s005,tp_15,tp,66,familiarization,123-142,1,2,3,1,4,2,,,,370.35,,1187.2,120,201,TRUE
s005,tp_15,tp,67,familiarization,532-251,5,3,2,2,5,1,,,,370.35,,1187.2,120,201,TRUE
s005,tp_15,tp,68,familiarization,251-251,2,5,1,2,5,1,378,0.878635907723169,244,370.35,805,1187.2,120,201,TRUE
s005,tp_15,tp,69,all-different,555-444,5,5,5,4,4,4,,,,370.35,,1187.2,120,201,TRUE
s005,tp_15,tp,70,all-different,555-222,5,5,5,2,2,2,-221,0.277833500501505,253,370.35,695,1187.2,120,201,TRUE
s005,tp_15,tp,71,all-small,342-451,3,4,2,4,5,1,-285,0.213640922768305,288,370.35,719,1187.2,120,201,TRUE
s005,tp_15,tp,72,two-large,541-145,5,4,1,1,4,5,-182,0.316950852557673,316,370.35,759,1187.2,120,201,TRUE
s005,tp_15,tp,73,all-small,344-433,3,4,4,4,3,3,262,0.762286860581745,298,370.35,638,1187.2,120,201,TRUE
s005,tp_15,tp,74,all-different,111-444,1,1,1,4,4,4,,,,370.35,,1187.2,120,201,TRUE
s005,tp_15,tp,75,all-equal,124-124,1,2,4,1,2,4,377,0.877632898696088,227,370.35,932,1187.2,120,201,TRUE
s005,tp_15,tp,76,two-small,245-335,2,4,5,3,3,5,251,0.751253761283852,306,370.35,803,1187.2,120,201,TRUE
s005,tp_15,tp,77,all-equal,342-342,3,4,2,3,4,2,-270,0.228686058174524,225,370.35,609,1187.2,120,201,TRUE
s005,tp_15,tp,78,one-large,451-455,4,5,1,4,5,5,280,0.780341023069208,258,370.35,708,1187.2,120,201,TRUE
s005,tp_15,tp,79,two-large,351-315,3,5,1,3,1,5,-222,0.276830491474423,191,370.35,670,1187.2,120,201,TRUE
s005,tp_15,tp,80,two-small,224-215,2,2,4,2,1,5,220,0.720160481444333,226,370.35,763,1187.2,120,201,TRUE
s005,tp_15,tp,81,all-equal,355-355,3,5,5,3,5,5,358,0.858575727181545,309,370.35,549,1187.2,120,201,TRUE
s005,tp_15,tp,82,two-large,152-512,1,5,2,5,1,2,-276,0.222668004012036,275,370.35,540,1187.2,120,201,TRUE
s005,tp_15,tp,83,all-small,223-314,2,2,3,3,1,4,-182,0.316950852557673,365,370.35,617,1187.2,120,201,TRUE
s005,tp_15,tp,84,one-large,153-113,1,5,3,1,1,3,-145,0.354062186559679,268,370.35,586,1187.2,120,201,TRUE
s005,tp_15,tp,85,one-large,531-131,5,3,1,1,3,1,,,,370.35,,1187.2,120,201,TRUE
s005,tp_15,tp,86,all-different,111-555,1,1,1,5,5,5,-314,0.184553660982949,288,370.35,504,1187.2,120,201,TRUE
s005,tp_15,tp,87,two-small,354-255,3,5,4,2,5,5,,,308,370.35,,1187.2,120,201,TRUE
s005,tp_15,tp,88,all-different,111-222,1,1,1,2,2,2,223,0.723169508525577,366,370.35,582,1187.2,120,201,TRUE
s005,tp_15,tp,89,all-equal,151-151,1,5,1,1,5,1,,,,370.35,,1187.2,120,201,TRUE
s005,tp_15,tp,90,all-small,342-451,3,4,2,4,5,1,377,0.877632898696088,269,370.35,584,1187.2,120,201,TRUE
s005,tp_15,tp,91,one-large,531-131,5,3,1,1,3,1,238,0.738214643931795,312,370.35,611,1187.2,120,201,TRUE
s005,tp_15,tp,92,one-large,451-455,4,5,1,4,5,5,-248,0.250752256770311,359,370.35,636,1187.2,120,201,TRUE
s005,tp_15,tp,93,two-small,224-215,2,2,4,2,1,5,-84,0.415245737211635,335,370.35,722,1187.2,120,201,TRUE
s005,tp_15,tp,94,all-small,223-314,2,2,3,3,1,4,,,,370.35,,1187.2,120,201,TRUE
s005,tp_15,tp,95,two-large,541-145,5,4,1,1,4,5,,,,370.35,,1187.2,120,201,TRUE
s005,tp_15,tp,96,one-large,153-113,1,5,3,1,1,3,,,,370.35,,1187.2,120,201,TRUE
s005,tp_15,tp,97,two-large,351-315,3,5,1,3,1,5,-190,0.308926780341023,315,370.35,691,1187.2,120,201,TRUE
s005,tp_15,tp,98,two-large,152-512,1,5,2,5,1,2,-196,0.302908726178536,317,370.35,524,1187.2,120,201,TRUE
s005,tp_15,tp,99,two-small,245-335,2,4,5,3,3,5,,,,370.35,,1187.2,120,201,TRUE
s005,tp_15,tp,100,all-small,344-433,3,4,4,4,3,3,-346,0.152457372116349,271,370.35,594,1187.2,120,201,TRUE
s005,tp_15,tp,101,two-small,354-255,3,5,4,2,5,5,,,,370.35,,1187.2,120,201,TRUE
s005,tp_15,tp,102,all-small,223-314,2,2,3,3,1,4,-68,0.431293881644935,236,370.35,572,1187.2,120,201,TRUE
s005,tp_15,tp,103,two-large,152-512,1,5,2,5,1,2,222,0.722166499498496,301,370.35,476,1187.2,120,201,TRUE
s005,tp_15,tp,104,all-small,342-451,3,4,2,4,5,1,119,0.618856569709127,343,370.35,660,1187.2,120,201,TRUE
s005,tp_15,tp,105,one-large,153-113,1,5,3,1,1,3,,,,370.35,,1187.2,120,201,TRUE
s005,tp_15,tp,106,two-large,351-315,3,5,1,3,1,5,-170,0.328986960882648,171,370.35,595,1187.2,120,201,TRUE
s005,tp_15,tp,107,two-small,245-335,2,4,5,3,3,5,275,0.775325977933801,240,370.35,607,1187.2,120,201,TRUE
s005,tp_15,tp,108,all-small,344-433,3,4,4,4,3,3,162,0.661985957873621,222,370.35,621,1187.2,120,201,TRUE
s005,tp_15,tp,109,one-large,451-455,4,5,1,4,5,5,162,0.661985957873621,258,370.35,572,1187.2,120,201,TRUE
s005,tp_15,tp,110,two-small,354-255,3,5,4,2,5,5,191,0.691073219658977,210,370.35,592,1187.2,120,201,TRUE
s005,tp_15,tp,111,two-small,224-215,2,2,4,2,1,5,-153,0.346038114343029,193,370.35,791,1187.2,120,201,TRUE
s005,tp_15,tp,112,one-large,531-131,5,3,1,1,3,1,-152,0.34704112337011,196,370.35,643,1187.2,120,201,TRUE
s005,tp_15,tp,113,two-large,541-145,5,4,1,1,4,5,44,0.543630892678034,275,370.35,552,1187.2,120,201,TRUE
s005,tp_15,tp,114,all-different,555-444,5,5,5,4,4,4,-114,0.385155466399198,251,370.35,655,1187.2,120,201,TRUE
s005,tp_15,tp,115,all-equal,342-342,3,4,2,3,4,2,-163,0.336008024072217,278,370.35,620,1187.2,120,201,TRUE
s005,tp_15,tp,116,two-large,351-315,3,5,1,3,1,5,,,149,370.35,,1187.2,120,201,TRUE
s005,tp_15,tp,117,all-equal,355-355,3,5,5,3,5,5,341,0.841524573721163,268,370.35,571,1187.2,120,201,TRUE
s005,tp_15,tp,118,one-large,451-455,4,5,1,4,5,5,204,0.704112337011033,268,370.35,582,1187.2,120,201,TRUE
s005,tp_15,tp,119,all-small,342-451,3,4,2,4,5,1,-97,0.402206619859579,223,370.35,548,1187.2,120,201,TRUE
s005,tp_15,tp,120,two-small,224-215,2,2,4,2,1,5,-149,0.350050150451354,201,370.35,698,1187.2,120,201,TRUE
s005,tp_15,tp,121,all-small,344-433,3,4,4,4,3,3,151,0.650952858575727,261,370.35,563,1187.2,120,201,TRUE
s005,tp_15,tp,122,two-small,245-335,2,4,5,3,3,5,,,,370.35,,1187.2,120,201,TRUE
s005,tp_15,tp,123,all-equal,151-151,1,5,1,1,5,1,268,0.768304914744233,274,370.35,589,1187.2,120,201,TRUE
s005,tp_15,tp,124,one-large,153-113,1,5,3,1,1,3,-206,0.292878635907723,261,370.35,686,1187.2,120,201,TRUE
s005,tp_15,tp,125,all-small,223-314,2,2,3,3,1,4,53,0.552657973921765,289,370.35,637,1187.2,120,201,TRUE
s005,tp_15,tp,126,two-large,541-145,5,4,1,1,4,5,-328,0.170511534603811,299,370.35,495,1187.2,120,201,TRUE
s005,tp_15,tp,127,all-equal,124-124,1,2,4,1,2,4,-380,0.118355065195587,297,370.35,778,1187.2,120,201,TRUE
s005,tp_15,tp,128,all-different,111-222,1,1,1,2,2,2,-171,0.327983951855567,320,370.35,647,1187.2,120,201,TRUE
s005,tp_15,tp,129,all-different,111-555,1,1,1,5,5,5,-495,0.00300902708124373,280,370.35,753,1187.2,120,201,TRUE
s005,tp_15,tp,130,two-small,354-255,3,5,4,2,5,5,-186,0.312938816449348,282,370.35,683,1187.2,120,201,TRUE
s005,tp_15,tp,131,all-different,111-444,1,1,1,4,4,4,-332,0.166499498495486,284,370.35,595,1187.2,120,201,TRUE
s005,tp_15,tp,132,two-large,152-512,1,5,2,5,1,2,-355,0.143430290872618,259,370.35,650,1187.2,120,201,TRUE
s005,tp_15,tp,133,all-different,555-222,5,5,5,2,2,2,-402,0.0962888665997994,278,370.35,693,1187.2,120,201,TRUE
s005,tp_15,tp,134,one-large,531-131,5,3,1,1,3,1,-153,0.346038114343029,304,370.35,633,1187.2,120,201,TRUE
s005,tp_15,no_tp,135,all-different,555-222,5,5,5,2,2,2,-484,0.0140421263791374,853,370.35,754,1187.2,120,201,TRUE
s005,tp_15,no_tp,136,all-equal,342-342,3,4,2,3,4,2,496,0.996990972918756,1869,370.35,768,1187.2,120,201,TRUE
s005,tp_15,no_tp,137,two-small,245-335,2,4,5,3,3,5,277,0.777331995987964,2012,370.35,1723,1187.2,120,201,TRUE
s005,tp_15,no_tp,138,all-different,111-222,1,1,1,2,2,2,205,0.705115346038114,1295,370.35,643,1187.2,120,201,TRUE
s005,tp_15,no_tp,139,two-large,351-315,3,5,1,3,1,5,-260,0.238716148445336,1428,370.35,630,1187.2,120,201,TRUE
s005,tp_15,no_tp,140,all-small,342-451,3,4,2,4,5,1,-285,0.213640922768305,1905,370.35,588,1187.2,120,201,TRUE
s005,tp_15,no_tp,141,all-equal,151-151,1,5,1,1,5,1,488,0.988966900702106,1258,370.35,1141,1187.2,120,201,TRUE
s005,tp_15,no_tp,142,one-large,153-113,1,5,3,1,1,3,-231,0.267803410230692,1303,370.35,721,1187.2,120,201,TRUE
s005,tp_15,no_tp,143,one-large,451-455,4,5,1,4,5,5,20,0.519558676028084,8766,370.35,716,1187.2,120,201,TRUE
s005,tp_15,no_tp,144,two-small,354-255,3,5,4,2,5,5,-196,0.302908726178536,2068,370.35,604,1187.2,120,201,TRUE
s005,tp_15,no_tp,145,all-equal,355-355,3,5,5,3,5,5,498,0.998996990972919,1402,370.35,770,1187.2,120,201,TRUE
s005,tp_15,no_tp,146,two-small,224-215,2,2,4,2,1,5,137,0.63691073219659,3219,370.35,595,1187.2,120,201,TRUE
s005,tp_15,no_tp,147,all-equal,124-124,1,2,4,1,2,4,499,1,2013,370.35,884,1187.2,120,201,TRUE
s005,tp_15,no_tp,148,two-large,152-512,1,5,2,5,1,2,-87,0.412236710130391,1537,370.35,497,1187.2,120,201,TRUE
s005,tp_15,no_tp,149,one-large,531-131,5,3,1,1,3,1,-228,0.270812437311936,2354,370.35,580,1187.2,120,201,TRUE
s005,tp_15,no_tp,150,all-small,223-314,2,2,3,3,1,4,-121,0.378134403209629,1448,370.35,507,1187.2,120,201,TRUE
s005,tp_15,no_tp,151,all-small,344-433,3,4,4,4,3,3,-45,0.454363089267803,3658,370.35,846,1187.2,120,201,TRUE
s005,tp_15,no_tp,152,all-different,111-555,1,1,1,5,5,5,-498,0,1041,370.35,935,1187.2,120,201,TRUE
s005,tp_15,no_tp,153,two-large,541-145,5,4,1,1,4,5,64,0.563691073219659,2633,370.35,1159,1187.2,120,201,TRUE
s005,tp_15,no_tp,154,all-different,111-444,1,1,1,4,4,4,-129,0.370110330992979,1039,370.35,685,1187.2,120,201,TRUE
s005,tp_15,no_tp,155,all-different,555-444,5,5,5,4,4,4,196,0.696088264794383,1557,370.35,1342,1187.2,120,201,TRUE
s005,tp_15,no_tp,156,two-small,224-215,2,2,4,2,1,5,-85,0.414242728184554,1433,370.35,702,1187.2,120,201,TRUE
s005,tp_15,no_tp,157,two-small,354-255,3,5,4,2,5,5,58,0.557673019057171,1931,370.35,703,1187.2,120,201,TRUE
s005,tp_15,no_tp,158,two-large,351-315,3,5,1,3,1,5,-358,0.140421263791374,1722,370.35,821,1187.2,120,201,TRUE
s005,tp_15,no_tp,159,all-small,344-433,3,4,4,4,3,3,-215,0.283851554663992,7088,370.35,868,1187.2,120,201,TRUE
s005,tp_15,no_tp,160,one-large,153-113,1,5,3,1,1,3,-235,0.263791374122367,1371,370.35,1250,1187.2,120,201,TRUE
s005,tp_15,no_tp,161,two-small,245-335,2,4,5,3,3,5,71,0.570712136409228,1659,370.35,670,1187.2,120,201,TRUE
s005,tp_15,no_tp,162,all-small,342-451,3,4,2,4,5,1,73,0.57271815446339,2602,370.35,631,1187.2,120,201,TRUE
s005,tp_15,no_tp,163,one-large,531-131,5,3,1,1,3,1,-292,0.206619859578736,3497,370.35,693,1187.2,120,201,TRUE
s005,tp_15,no_tp,164,all-small,223-314,2,2,3,3,1,4,47,0.546639919759278,5399,370.35,1320,1187.2,120,201,TRUE
s005,tp_15,no_tp,165,one-large,451-455,4,5,1,4,5,5,-303,0.195586760280843,1218,370.35,484,1187.2,120,201,TRUE
s005,tp_15,no_tp,166,two-large,541-145,5,4,1,1,4,5,-162,0.337011033099298,3082,370.35,695,1187.2,120,201,TRUE
s005,tp_15,no_tp,167,two-large,152-512,1,5,2,5,1,2,-239,0.259779338014042,1245,370.35,525,1187.2,120,201,TRUE
s005,tp_15,no_tp,168,all-small,223-314,2,2,3,3,1,4,46,0.545636910732197,1311,370.35,682,1187.2,120,201,TRUE
s005,tp_15,no_tp,169,all-small,342-451,3,4,2,4,5,1,209,0.709127382146439,2578,370.35,734,1187.2,120,201,TRUE
s005,tp_15,no_tp,170,two-large,152-512,1,5,2,5,1,2,60,0.559679037111334,4424,370.35,649,1187.2,120,201,TRUE
s005,tp_15,no_tp,171,two-small,224-215,2,2,4,2,1,5,98,0.597793380140421,6207,370.35,2008,1187.2,120,201,TRUE
s005,tp_15,no_tp,172,two-large,541-145,5,4,1,1,4,5,213,0.713139418254764,3239,370.35,790,1187.2,120,201,TRUE
s005,tp_15,no_tp,173,one-large,153-113,1,5,3,1,1,3,-147,0.352056168505517,6501,370.35,1088,1187.2,120,201,TRUE
s005,tp_15,no_tp,174,two-large,351-315,3,5,1,3,1,5,144,0.643931795386159,5126,370.35,694,1187.2,120,201,TRUE
s005,tp_15,no_tp,175,one-large,451-455,4,5,1,4,5,5,-190,0.308926780341023,1611,370.35,585,1187.2,120,201,TRUE
s005,tp_15,no_tp,176,two-small,354-255,3,5,4,2,5,5,36,0.535606820461384,6812,370.35,772,1187.2,120,201,TRUE
s005,tp_15,no_tp,177,all-small,344-433,3,4,4,4,3,3,138,0.637913741223671,1633,370.35,594,1187.2,120,201,TRUE
s005,tp_15,no_tp,178,one-large,531-131,5,3,1,1,3,1,-123,0.376128385155466,1116,370.35,713,1187.2,120,201,TRUE
s005,tp_15,no_tp,179,two-small,245-335,2,4,5,3,3,5,97,0.59679037111334,1099,370.35,829,1187.2,120,201,TRUE
s005,tp_15,no_tp,180,all-different,555-222,5,5,5,2,2,2,-321,0.17753259779338,840,370.35,566,1187.2,120,201,TRUE
s005,tp_15,no_tp,181,all-equal,151-151,1,5,1,1,5,1,492,0.992978936810431,1485,370.35,1020,1187.2,120,201,TRUE
